History written: Fri Mar  8 07:40:36 2019
produced by benjam23
##### PDFgui fit
stype=N  neutron scattering
qmax=35.00
qdamp=0.0142651
qbroad=0.0240589
dscale=0.951818
fitrmin=0.5
fitrmax=50
# metadata
temperature=15.0
##### start data
#L r(A) G(r) d_r d_Gr Gdiff
0.49 -0.182915 0.0 93.0349 93.0349
0.5 -0.457703 0.0 92.5067 92.5067
0.51 -0.72316 0.0 92.1142 92.1142
0.52 -0.952338 0.0 91.8223 91.8223
0.53 -1.12214 0.0 91.5881 91.5881
0.54 -1.21606 0.0 91.3661 91.3661
0.55 -1.22625 0.0 91.1123 91.1123
0.56 -1.15448 0.0 90.7805 90.7805
0.57 -1.01206 0.0 90.3321 90.3321
0.58 -0.818589 0.0 89.7286 89.7286
0.59 -0.599697 0.0 88.9407 88.9407
0.6 -0.384049 0.0 87.942 87.942
0.61 -0.199955 0.0 86.718 86.718
0.62 -0.071974 0.0 85.257 85.257
0.63 -0.017944 0.0 83.5609 83.5609
0.64 -0.046773 0.0 81.6398 81.6398
0.65 -0.157287 0.0 79.5153 79.5153
0.66 -0.338278 0.0 77.2223 77.2223
0.67 -0.569763 0.0 74.8068 74.8068
0.68 -0.825318 0.0 72.3253 72.3253
0.69 -1.07522 0.0 69.8452 69.8452
0.7 -1.29004 0.0 67.436 67.436
0.71 -1.44422 0.0 65.1722 65.1722
0.72 -1.51925 0.0 63.1233 63.1233
0.73 -1.50604 0.0 61.347 61.347
0.74 -1.40614 0.0 59.8891 59.8891
0.75 -1.23175 0.0 58.7728 58.7728
0.76 -1.00435 0.0 57.9994 57.9994
0.77 -0.752265 0.0 57.5433 57.5433
0.78 -0.507283 0.0 57.3523 57.3523
0.79 -0.300864 0.0 57.3549 57.3549
0.8 -0.160281 0.0 57.4583 57.4583
0.81 -0.105226 0.0 57.5612 57.5612
0.82 -0.145281 0.0 57.5593 57.5593
0.83 -0.278573 0.0 57.3586 57.3586
0.84 -0.491809 0.0 56.8788 56.8788
0.85 -0.761693 0.0 56.0657 56.0657
0.86 -1.05759 0.0 54.8966 54.8966
0.87 -1.34514 0.0 53.3831 53.3831
0.88 -1.59035 0.0 51.5704 51.5704
0.89 -1.76381 0.0 49.5348 49.5348
0.9 -1.84428 0.0 47.3783 47.3783
0.91 -1.8215 0.0 45.2165 45.2165
0.92 -1.69764 0.0 43.1686 43.1686
0.93 -1.48722 0.0 41.3452 41.3452
0.94 -1.21563 0.0 39.8366 39.8366
0.95 -0.916252 0.0 38.7053 38.7053
0.96 -0.626478 0.0 37.9735 37.9735
0.97 -0.383293 0.0 37.6263 37.6263
0.98 -0.218729 0.0 37.6087 37.6087
0.99 -0.155858 0.0 37.8299 37.8299
1 -0.205801 0.0 38.1758 38.1758
1.01 -0.366125 0.0 38.5191 38.5191
1.02 -0.620861 0.0 38.7319 38.7319
1.03 -0.942169 0.0 38.7012 38.7012
1.04 -1.29349 0.0 38.3425 38.3425
1.05 -1.63381 0.0 37.6098 37.6098
1.06 -1.92259 0.0 36.4996 36.4996
1.07 -2.12471 0.0 35.0577 35.0577
1.08 -2.21487 0.0 33.3729 33.3729
1.09 -2.18091 0.0 31.5699 31.5699
1.1 -2.02554 0.0 29.7965 29.7965
1.11 -1.76643 0.0 28.2114 28.2114
1.12 -1.43428 0.0 26.9643 26.9643
1.13 -1.06947 0.0 26.1815 26.1815
1.14 -0.717266 0.0 25.9513 25.9513
1.15 -0.422478 0.0 26.3135 26.3135
1.16 -0.223925 0.0 27.2539 27.2539
1.17 -0.149578 0.0 28.6996 28.6996
1.18 -0.212879 0.0 30.5329 30.5329
1.19 -0.410747 0.0 32.5927 32.5927
1.2 -0.723557 0.0 34.6956 34.6956
1.21 -1.11713 0.0 36.6511 36.6511
1.22 -1.54655 0.0 38.2815 38.2815
1.23 -1.96137 0.0 39.4404 39.4404
1.24 -2.31168 0.0 40.0237 40.0237
1.25 -2.55418 0.0 39.9862 39.9862
1.26 -2.65764 0.0 39.3436 39.3436
1.27 -2.60709 0.0 38.1701 38.1701
1.28 -2.406 0.0 36.595 36.595
1.29 -2.07642 0.0 34.7844 34.7844
1.3 -1.65672 0.0 32.9287 32.9287
1.31 -1.19739 0.0 31.2224 31.2224
1.32 -0.75515 0.0 29.8422 29.8422
1.33 -0.386212 0.0 28.9292 28.9292
1.34 -0.139372 0.0 28.5764 28.5764
1.35 -0.0498244 0.0 28.8168 28.8168
1.36 -0.134469 0.0 29.6215 29.6215
1.37 -0.389303 0.0 30.9023 30.9023
1.38 -0.789306 0.0 32.5193 32.5193
1.39 -1.29088 0.0 34.2999 34.2999
1.4 -1.83662 0.0 36.0536 36.0536
1.41 -2.36196 0.0 37.593 37.593
1.42 -2.80284 0.0 38.7538 38.7538
1.43 -3.10361 0.0 39.4106 39.4106
1.44 -3.22408 0.0 39.4931 39.4931
1.45 -3.14499 0.0 38.987 38.987
1.46 -2.871 0.0 37.941 37.941
1.47 -2.43096 0.0 36.458 36.458
1.48 -1.8751 0.0 34.6841 34.6841
1.49 -1.26964 0.0 32.7886 32.7886
1.5 -0.689163 0.0 30.9542 30.9542
1.51 -0.207756 0.0 29.3488 29.3488
1.52 0.110138 0.0 28.1109 28.1109
1.53 0.217971 0.0 27.334 27.334
1.54 0.093469 0.0 27.0615 27.0615
1.55 -0.257746 0.0 27.2767 27.2767
1.56 -0.80181 0.0 27.9108 27.9108
1.57 -1.47973 0.0 28.8507 28.8507
1.58 -2.21369 0.0 29.9537 29.9537
1.59 -2.91593 0.0 31.0619 31.0619
1.6 -3.49915 0.0 32.0252 32.0252
1.61 -3.88734 0.0 32.7183 32.7183
1.62 -4.02559 0.0 33.0546 33.0546
1.63 -3.88776 0.0 32.9958 32.9958
1.64 -3.48094 0.0 32.5599 32.5599
1.65 -2.84595 0.0 31.8169 31.8169
1.66 -2.05379 0.0 30.8808 30.8808
1.67 -1.19819 0.0 29.8972 29.8972
1.68 -0.384987 0.0 29.026 29.026
1.69 0.280427 0.0 28.4196 28.4196
1.7 0.706203 0.0 28.2098 28.2098
1.71 0.826099 0.0 28.4829 28.4829
1.72 0.608968 0.0 29.278 29.278
1.73 0.0643712 0.0 30.5716 30.5716
1.74 -0.756537 0.0 32.2855 32.2855
1.75 -1.76524 0.0 34.2872 34.2872
1.76 -2.84491 0.0 36.4129 36.4129
1.77 -3.86352 0.0 38.4745 38.4745
1.78 -4.68949 0.0 40.2895 40.2895
1.79 -5.20823 0.0 41.6982 41.6982
1.8 -5.33751 0.0 42.5815 42.5815
1.81 -5.03977 0.0 42.8778 42.8778
1.82 -4.32952 0.0 42.5915 42.5915
1.83 -3.27489 0.0 41.7949 41.7949
1.84 -1.99236 0.0 40.6194 40.6194
1.85 -0.63532 0.0 39.2463 39.2463
1.86 0.623028 0.0 37.884 37.884
1.87 1.61029 0.0 36.7477 36.7477
1.88 2.17706 0.0 36.0369 36.0369
1.89 2.2178 0.0 35.9062 35.9062
1.9 1.68788 0.0 36.4521 36.4521
1.91 0.61418 0.0 37.6938 37.6938
1.92 -0.902596 0.0 39.5736 39.5736
1.93 -2.69503 0.0 41.953 41.953
1.94 -4.5457 0.0 44.6267 44.6267
1.95 -6.21248 0.0 47.3375 47.3375
1.96 -7.46044 0.0 49.8074 49.8074
1.97 -8.09748 0.0 51.7545 51.7545
1.98 -8.00989 0.0 52.9289 52.9289
1.99 -7.19406 0.0 53.1361 53.1361
2 -5.78036 0.0 52.2554 52.2554
2.01 -4.04564 0.0 50.2566 50.2566
2.02 -2.41186 0.0 47.2059 47.2059
2.03 -1.4295 0.0 43.2605 43.2605
2.04 -1.7455 0.0 38.6555 38.6555
2.05 -4.05763 0.0 33.6856 33.6856
2.06 -9.0579 0.0 28.6779 28.6779
2.07 -17.3697 0.0 23.9627 23.9627
2.08 -29.4834 0.0 19.8444 19.8444
2.09 -45.6969 0.0 16.5739 16.5739
2.1 -66.0655 0.0 14.3265 14.3265
2.11 -90.3683 0.0 13.1893 13.1893
2.12 -118.093 0.0 13.153 13.153
2.13 -148.443 0.0 14.1124 14.1124
2.14 -180.369 0.0 15.8863 15.8863
2.15 -212.619 0.0 18.2258 18.2258
2.16 -243.809 0.0 20.8458 20.8458
2.17 -272.509 0.0 23.4522 23.4522
2.18 -297.335 0.0 25.7622 25.7622
2.19 -317.04 0.0 27.5392 27.5392
2.2 -330.602 0.0 28.6026 28.6026
2.21 -337.293 0.0 28.8533 28.8533
2.22 -336.739 0.0 28.2649 28.2649
2.23 -328.94 0.0 26.898 26.898
2.24 -314.279 0.0 24.8766 24.8766
2.25 -293.493 0.0 22.3796 22.3796
2.26 -267.625 0.0 19.6235 19.6235
2.27 -237.955 0.0 16.8314 16.8314
2.28 -205.908 0.0 14.2203 14.2203
2.29 -172.962 0.0 11.9775 11.9775
2.3 -140.552 0.0 10.2429 10.2429
2.31 -109.976 0.0 9.10611 9.10611
2.32 -82.3226 0.0 8.5956 8.5956
2.33 -58.4092 0.0 8.68719 8.68719
2.34 -38.7484 0.0 9.30539 9.30539
2.35 -23.5369 0.0 10.3409 10.3409
2.36 -12.6694 0.0 11.6644 11.6644
2.37 -5.77507 0.0 13.1371 13.1371
2.38 -2.27159 0.0 14.6326 14.6326
2.39 -1.43242 0.0 16.0404 16.0404
2.4 -2.45999 0.0 17.282 17.282
2.41 -4.55874 0.0 18.3087 18.3087
2.42 -7.00146 0.0 19.1035 19.1035
2.43 -9.18364 0.0 19.6756 19.6756
2.44 -10.6617 0.0 20.0537 20.0537
2.45 -11.1731 0.0 20.2741 20.2741
2.46 -10.6369 0.0 20.3759 20.3759
2.47 -9.13763 0.0 20.3846 20.3846
2.48 -6.89346 0.0 20.3145 20.3145
2.49 -4.21435 0.0 20.1564 20.1564
2.5 -1.45432 0.0 19.8843 19.8843
2.51 1.03678 0.0 19.4542 19.4542
2.52 2.95685 0.0 18.8162 18.8162
2.53 4.08642 0.0 17.9156 17.9156
2.54 4.31157 0.0 16.7094 16.7094
2.55 3.63316 0.0 15.1718 15.1718
2.56 2.16215 0.0 13.3039 13.3039
2.57 0.102275 0.0 11.1317 11.1317
2.58 -2.27743 0.0 8.71943 8.71943
2.59 -4.67674 0.0 6.15274 6.15274
2.6 -6.80077 0.0 3.54277 3.54277
2.61 -8.39495 0.0 1.01195 1.01195
2.62 -9.27422 0.0 -1.31778 -1.31778
2.63 -9.34354 0.0 -3.33846 -3.33846
2.64 -8.60745 0.0 -4.96255 -4.96255
2.65 -7.1679 0.0 -6.1381 -6.1381
2.66 -5.21073 0.0 -6.85327 -6.85327
2.67 -2.98258 0.0 -7.14042 -7.14042
2.68 -0.760971 0.0 -7.07103 -7.07103
2.69 1.17896 0.0 -6.75196 -6.75196
2.7 2.59728 0.0 -6.31628 -6.31628
2.71 3.31784 0.0 -5.90684 -5.90684
2.72 3.24929 0.0 -5.66629 -5.66629
2.73 2.3963 0.0 -5.7203 -5.7203
2.74 0.859424 0.0 -6.16642 -6.16642
2.75 -1.17624 0.0 -7.06476 -7.06476
2.76 -3.46254 0.0 -8.43046 -8.43046
2.77 -5.71738 0.0 -10.2336 -10.2336
2.78 -7.65838 0.0 -12.4026 -12.4026
2.79 -9.03709 0.0 -14.8309 -14.8309
2.8 -9.66979 0.0 -17.3882 -17.3882
2.81 -9.4612 0.0 -19.9318 -19.9318
2.82 -8.41799 0.0 -22.324 -22.324
2.83 -6.65001 0.0 -24.44 -24.44
2.84 -4.35852 0.0 -26.1825 -26.1825
2.85 -1.81198 0.0 -27.488 -27.488
2.86 0.688631 0.0 -28.3326 -28.3326
2.87 2.8518 0.0 -28.7278 -28.7278
2.88 4.4406 0.0 -28.7236 -28.7236
2.89 5.31626 0.0 -28.3923 -28.3923
2.9 5.47549 0.0 -27.8275 -27.8275
2.91 5.07704 0.0 -27.126 -27.126
2.92 4.4538 0.0 -26.3858 -26.3858
2.93 4.10823 0.0 -25.6862 -25.6862
2.94 4.68989 0.0 -25.0889 -25.0889
2.95 6.956 0.0 -24.634 -24.634
2.96 11.7171 0.0 -24.3341 -24.3341
2.97 19.7716 0.0 -24.1816 -24.1816
2.98 31.835 0.0 -24.154 -24.154
2.99 48.4676 0.0 -24.2186 -24.2186
3 70.0099 0.0 -24.3429 -24.3429
3.01 96.5281 0.0 -24.5041 -24.5041
3.02 127.778 0.0 -24.6909 -24.6909
3.03 163.188 0.0 -24.9105 -24.9105
3.04 201.871 0.0 -25.1907 -25.1907
3.05 242.648 0.0 -25.5744 -25.5744
3.06 284.113 0.0 -26.1207 -26.1207
3.07 324.696 0.0 -26.8888 -26.8888
3.08 362.759 0.0 -27.9372 -27.9372
3.09 396.691 0.0 -29.3106 -29.3106
3.1 425.001 0.0 -31.0295 -31.0295
3.11 446.42 0.0 -33.0893 -33.0893
3.12 459.972 0.0 -35.4482 -35.4482
3.13 465.041 0.0 -38.0332 -38.0332
3.14 461.408 0.0 -40.7401 -40.7401
3.15 449.264 0.0 -43.4422 -43.4422
3.16 429.197 0.0 -45.9973 -45.9973
3.17 402.152 0.0 -48.2609 -48.2609
3.18 369.368 0.0 -50.0997 -50.0997
3.19 332.3 0.0 -51.3999 -51.3999
3.2 292.528 0.0 -52.0846 -52.0846
3.21 251.657 0.0 -52.1153 -52.1153
3.22 211.229 0.0 -51.4991 -51.4991
3.23 172.631 0.0 -50.2875 -50.2875
3.24 137.026 0.0 -48.575 -48.575
3.25 105.305 0.0 -46.4881 -46.4881
3.26 78.0523 0.0 -44.1783 -44.1783
3.27 55.5411 0.0 -41.8061 -41.8061
3.28 37.7487 0.0 -39.5307 -39.5307
3.29 24.3918 0.0 -37.4988 -37.4988
3.3 14.9772 0.0 -35.8272 -35.8272
3.31 8.86364 0.0 -34.6016 -34.6016
3.32 5.3279 0.0 -33.8709 -33.8709
3.33 3.6309 0.0 -33.6429 -33.6429
3.34 3.07709 0.0 -33.8881 -33.8881
3.35 3.0634 0.0 -34.5504 -34.5504
3.36 3.11439 0.0 -35.5454 -35.5454
3.37 2.90163 0.0 -36.7796 -36.7796
3.38 2.24717 0.0 -38.1542 -38.1542
3.39 1.11216 0.0 -39.5732 -39.5732
3.4 -0.426676 0.0 -40.9583 -40.9583
3.41 -2.2094 0.0 -42.2446 -42.2446
3.42 -4.02989 0.0 -43.3891 -43.3891
3.43 -5.67326 0.0 -44.3677 -44.3677
3.44 -6.94966 0.0 -45.1753 -45.1753
3.45 -7.72115 0.0 -45.8209 -45.8209
3.46 -7.91914 0.0 -46.3219 -46.3219
3.47 -7.55132 0.0 -46.6987 -46.6987
3.48 -6.69789 0.0 -46.9711 -46.9711
3.49 -5.49847 0.0 -47.1525 -47.1525
3.5 -4.13178 0.0 -47.2512 -47.2512
3.51 -2.79112 0.0 -47.2669 -47.2669
3.52 -1.6589 0.0 -47.1941 -47.1941
3.53 -0.883681 0.0 -47.0243 -47.0243
3.54 -0.562581 0.0 -46.7484 -46.7484
3.55 -0.731394 0.0 -46.3656 -46.3656
3.56 -1.36369 0.0 -45.8773 -45.8773
3.57 -2.37913 0.0 -45.2999 -45.2999
3.58 -3.66001 0.0 -44.659 -44.659
3.59 -5.07421 0.0 -43.9888 -43.9888
3.6 -6.50165 0.0 -43.3323 -43.3323
3.61 -7.8611 0.0 -42.7349 -42.7349
3.62 -9.13379 0.0 -42.2382 -42.2382
3.63 -10.3809 0.0 -41.8791 -41.8791
3.64 -11.7517 0.0 -41.6773 -41.6773
3.65 -13.4821 0.0 -41.6379 -41.6379
3.66 -15.8807 0.0 -41.7463 -41.7463
3.67 -19.3054 0.0 -41.9706 -41.9706
3.68 -24.1307 0.0 -42.2603 -42.2603
3.69 -30.7096 0.0 -42.5544 -42.5544
3.7 -39.3325 0.0 -42.7875 -42.7875
3.71 -50.1884 0.0 -42.8986 -42.8986
3.72 -63.3315 0.0 -42.8365 -42.8365
3.73 -78.6572 0.0 -42.5688 -42.5688
3.74 -95.8903 0.0 -42.0877 -42.0877
3.75 -114.587 0.0 -41.412 -41.412
3.76 -134.152 0.0 -40.5922 -40.5922
3.77 -153.868 0.0 -39.6994 -39.6994
3.78 -172.937 0.0 -38.8267 -38.8267
3.79 -190.535 0.0 -38.0782 -38.0782
3.8 -205.859 0.0 -37.5565 -37.5565
3.81 -218.187 0.0 -37.3563 -37.3563
3.82 -226.926 0.0 -37.5485 -37.5485
3.83 -231.655 0.0 -38.177 -38.177
3.84 -232.148 0.0 -39.2435 -39.2435
3.85 -228.396 0.0 -40.7151 -40.7151
3.86 -220.598 0.0 -42.5177 -42.5177
3.87 -209.152 0.0 -44.5435 -44.5435
3.88 -194.621 0.0 -46.6582 -46.6582
3.89 -177.691 0.0 -48.7154 -48.7154
3.9 -159.127 0.0 -50.5663 -50.5663
3.91 -139.719 0.0 -52.0737 -52.0737
3.92 -120.235 0.0 -53.1283 -53.1283
3.93 -101.37 0.0 -53.6533 -53.6533
3.94 -83.7144 0.0 -53.6196 -53.6196
3.95 -67.7261 0.0 -53.0419 -53.0419
3.96 -53.7147 0.0 -51.9823 -51.9823
3.97 -41.8403 0.0 -50.5437 -50.5437
3.98 -32.1224 0.0 -48.8576 -48.8576
3.99 -24.4584 0.0 -47.0786 -47.0786
4 -18.6494 0.0 -45.3626 -45.3626
4.01 -14.43 0.0 -43.86 -43.86
4.02 -11.4988 0.0 -42.6952 -42.6952
4.03 -9.54852 0.0 -41.9595 -41.9595
4.04 -8.29035 0.0 -41.7057 -41.7057
4.05 -7.4738 0.0 -41.9372 -41.9372
4.06 -6.89922 0.0 -42.6168 -42.6168
4.07 -6.42348 0.0 -43.6655 -43.6655
4.08 -5.95912 0.0 -44.9769 -44.9769
4.09 -5.46817 0.0 -46.4208 -46.4208
4.1 -4.95207 0.0 -47.8659 -47.8659
4.11 -4.43928 0.0 -49.1837 -49.1837
4.12 -3.97237 0.0 -50.2646 -50.2646
4.13 -3.59587 0.0 -51.0291 -51.0291
4.14 -3.34607 0.0 -51.4309 -51.4309
4.15 -3.24334 0.0 -51.4597 -51.4597
4.16 -3.2873 0.0 -51.1417 -51.1417
4.17 -3.45448 0.0 -50.5365 -50.5365
4.18 -3.69827 0.0 -49.7247 -49.7247
4.19 -3.95022 0.0 -48.8008 -48.8008
4.2 -4.12236 0.0 -47.8626 -47.8626
4.21 -4.10969 0.0 -47.0003 -47.0003
4.22 -3.79281 0.0 -46.2852 -46.2852
4.23 -3.04041 0.0 -45.7676 -45.7676
4.24 -1.71196 0.0 -45.469 -45.469
4.25 0.338996 0.0 -45.382 -45.382
4.26 3.26041 0.0 -45.4724 -45.4724
4.27 7.19561 0.0 -45.6846 -45.6846
4.28 12.2751 0.0 -45.9531 -45.9531
4.29 18.6061 0.0 -46.2021 -46.2021
4.3 26.2605 0.0 -46.3625 -46.3625
4.31 35.2613 0.0 -46.3753 -46.3753
4.32 45.5692 0.0 -46.1992 -46.1992
4.33 57.0706 0.0 -45.8156 -45.8156
4.34 69.5691 0.0 -45.2271 -45.2271
4.35 82.7813 0.0 -44.4633 -44.4633
4.36 96.3391 0.0 -43.5651 -43.5651
4.37 109.8 0.0 -42.5909 -42.5909
4.38 122.663 0.0 -41.6031 -41.6031
4.39 134.395 0.0 -40.6624 -40.6624
4.4 144.462 0.0 -39.8205 -39.8205
4.41 152.359 0.0 -39.1167 -39.1167
4.42 157.653 0.0 -38.5701 -38.5701
4.43 160.015 0.0 -38.1806 -38.1806
4.44 159.246 0.0 -37.9289 -37.9289
4.45 155.305 0.0 -37.7807 -37.7807
4.46 148.314 0.0 -37.6881 -37.6881
4.47 138.562 0.0 -37.5977 -37.5977
4.48 126.485 0.0 -37.4591 -37.4591
4.49 112.645 0.0 -37.2231 -37.2231
4.5 97.6888 0.0 -36.8568 -36.8568
4.51 82.304 0.0 -36.342 -36.342
4.52 67.1703 0.0 -35.6743 -35.6743
4.53 52.9109 0.0 -34.8699 -34.8699
4.54 40.0481 0.0 -33.9561 -33.9561
4.55 28.9686 0.0 -32.9756 -32.9756
4.56 19.901 0.0 -31.973 -31.973
4.57 12.9071 0.0 -30.9961 -30.9961
4.58 7.88907 0.0 -30.0881 -30.0881
4.59 4.6108 0.0 -29.2838 -29.2838
4.6 2.73139 0.0 -28.6054 -28.6054
4.61 1.84741 0.0 -28.0624 -28.0624
4.62 1.53929 0.0 -27.6513 -27.6513
4.63 1.41667 0.0 -27.3567 -27.3567
4.64 1.15784 0.0 -27.1518 -27.1518
4.65 0.538765 0.0 -27.0108 -27.0108
4.66 -0.551836 0.0 -26.9012 -26.9012
4.67 -2.1131 0.0 -26.7989 -26.7989
4.68 -4.04871 0.0 -26.6843 -26.6843
4.69 -6.19795 0.0 -26.5471 -26.5471
4.7 -8.37782 0.0 -26.3882 -26.3882
4.71 -10.4316 0.0 -26.2154 -26.2154
4.72 -12.2779 0.0 -26.0461 -26.0461
4.73 -13.9545 0.0 -25.8995 -25.8995
4.74 -15.6509 0.0 -25.7971 -25.7971
4.75 -17.7249 0.0 -25.7561 -25.7561
4.76 -20.6995 0.0 -25.7835 -25.7835
4.77 -25.2391 0.0 -25.8789 -25.8789
4.78 -32.1048 0.0 -26.0302 -26.0302
4.79 -42.0932 0.0 -26.2148 -26.2148
4.8 -55.9616 0.0 -26.3994 -26.3994
4.81 -74.3472 0.0 -26.5438 -26.5438
4.82 -97.6881 0.0 -26.6089 -26.6089
4.83 -126.153 0.0 -26.5567 -26.5567
4.84 -159.588 0.0 -26.3597 -26.3597
4.85 -197.485 0.0 -26.0001 -26.0001
4.86 -238.976 0.0 -25.4795 -25.4795
4.87 -282.863 0.0 -24.8117 -24.8117
4.88 -327.666 0.0 -24.0357 -24.0357
4.89 -371.705 0.0 -23.1955 -23.1955
4.9 -413.199 0.0 -22.3551 -22.3551
4.91 -450.374 0.0 -21.5753 -21.5753
4.92 -481.581 0.0 -20.9222 -20.9222
4.93 -505.404 0.0 -20.4451 -20.4451
4.94 -520.754 0.0 -20.185 -20.185
4.95 -526.942 0.0 -20.1558 -20.1558
4.96 -523.724 0.0 -20.3514 -20.3514
4.97 -511.311 0.0 -20.7405 -20.7405
4.98 -490.353 0.0 -21.2621 -21.2621
4.99 -461.889 0.0 -21.8392 -21.8392
5 -427.269 0.0 -22.3741 -22.3741
5.01 -388.062 0.0 -22.7661 -22.7661
5.02 -345.949 0.0 -22.9142 -22.9142
5.03 -302.615 0.0 -22.7238 -22.7238
5.04 -259.649 0.0 -22.1238 -22.1238
5.05 -218.454 0.0 -21.0602 -21.0602
5.06 -180.179 0.0 -19.5176 -19.5176
5.07 -145.68 0.0 -17.5048 -17.5048
5.08 -115.496 0.0 -15.0699 -15.0699
5.09 -89.8601 0.0 -12.2809 -12.2809
5.1 -68.7274 0.0 -9.23964 -9.23964
5.11 -51.8207 0.0 -6.05627 -6.05627
5.12 -38.6881 0.0 -2.85391 -2.85391
5.13 -28.7634 0.0 0.252364 0.252364
5.14 -21.4255 0.0 3.15154 3.15154
5.15 -16.0498 0.0 5.75579 5.75579
5.16 -12.0466 0.0 7.99655 7.99655
5.17 -8.88589 0.0 9.83789 9.83789
5.18 -6.10685 0.0 11.2709 11.2709
5.19 -3.31308 0.0 12.3121 12.3121
5.2 -0.157629 0.0 13.0046 13.0046
5.21 3.6785 0.0 13.4095 13.4095
5.22 8.50943 0.0 13.5966 13.5966
5.23 14.664 0.0 13.644 13.644
5.24 22.4975 0.0 13.6235 13.6235
5.25 32.3922 0.0 13.6018 13.6018
5.26 44.7453 0.0 13.6277 13.6277
5.27 59.944 0.0 13.736 13.736
5.28 78.3294 0.0 13.9436 13.9436
5.29 100.153 0.0 14.2517 14.2517
5.3 125.532 0.0 14.6488 14.6488
5.31 154.404 0.0 15.1124 15.1124
5.32 186.491 0.0 15.6178 15.6178
5.33 221.283 0.0 16.1392 16.1392
5.34 258.026 0.0 16.6621 16.6621
5.35 295.743 0.0 17.1748 17.1748
5.36 333.268 0.0 17.6828 17.6828
5.37 369.3 0.0 18.1992 18.1992
5.38 402.473 0.0 18.7554 18.7554
5.39 431.438 0.0 19.3784 19.3784
5.4 454.947 0.0 20.1119 20.1119
5.41 471.937 0.0 20.991 20.991
5.42 481.6 0.0 22.0442 22.0442
5.43 483.442 0.0 23.2879 23.2879
5.44 477.321 0.0 24.7232 24.7232
5.45 463.456 0.0 26.3326 26.3326
5.46 442.421 0.0 28.0733 28.0733
5.47 415.101 0.0 29.8913 29.8913
5.48 382.642 0.0 31.7104 31.7104
5.49 346.373 0.0 33.4455 33.4455
5.5 307.723 0.0 35.0038 35.0038
5.51 268.135 0.0 36.2995 36.2995
5.52 228.979 0.0 37.2548 37.2548
5.53 191.477 0.0 37.805 37.805
5.54 156.644 0.0 37.9131 37.9131
5.55 125.246 0.0 37.5608 37.5608
5.56 97.7801 0.0 36.7679 36.7679
5.57 74.4727 0.0 35.5743 35.5743
5.58 55.3006 0.0 34.0514 34.0514
5.59 40.0267 0.0 32.2883 32.2883
5.6 28.2475 0.0 30.3925 30.3925
5.61 19.4476 0.0 28.4764 28.4764
5.62 13.0563 0.0 26.6547 26.6547
5.63 8.50017 0.0 25.0308 25.0308
5.64 5.24846 0.0 23.6975 23.6975
5.65 2.8476 0.0 22.7224 22.7224
5.66 0.943126 0.0 22.1519 22.1519
5.67 -0.711418 0.0 22.0004 22.0004
5.68 -2.25786 0.0 22.2629 22.2629
5.69 -3.74694 0.0 22.9029 22.9029
5.7 -5.15942 0.0 23.8704 23.8704
5.71 -6.43123 0.0 25.0962 25.0962
5.72 -7.47962 0.0 26.5036 26.5036
5.73 -8.22692 0.0 28.0159 28.0159
5.74 -8.61957 0.0 29.5596 29.5596
5.75 -8.64073 0.0 31.0687 31.0687
5.76 -8.31547 0.0 32.4955 32.4955
5.77 -7.7089 0.0 33.8029 33.8029
5.78 -6.91812 0.0 34.9751 34.9751
5.79 -6.05952 0.0 36.0115 36.0115
5.8 -5.25371 0.0 36.9257 36.9257
5.81 -4.61006 0.0 37.7401 37.7401
5.82 -4.2131 0.0 38.4891 38.4891
5.83 -4.11247 0.0 39.2065 39.2065
5.84 -4.31752 0.0 39.9265 39.9265
5.85 -4.79722 0.0 40.6812 40.6812
5.86 -5.48523 0.0 41.4942 41.4942
5.87 -6.28919 0.0 42.3832 42.3832
5.88 -7.10311 0.0 43.3551 43.3551
5.89 -7.8212 0.0 44.4112 44.4112
5.9 -8.35131 0.0 45.5473 45.5473
5.91 -8.62632 0.0 46.7503 46.7503
5.92 -8.61219 0.0 48.0082 48.0082
5.93 -8.31157 0.0 49.3076 49.3076
5.94 -7.76251 0.0 50.6355 50.6355
5.95 -7.03261 0.0 51.9776 51.9776
5.96 -6.20895 0.0 53.326 53.326
5.97 -5.3852 0.0 54.6722 54.6722
5.98 -4.64717 0.0 56.0102 56.0102
5.99 -4.05842 0.0 57.3304 57.3304
6 -3.64759 0.0 58.6266 58.6266
6.01 -3.39867 0.0 59.8867 59.8867
6.02 -3.24547 0.0 61.0975 61.0975
6.03 -3.07075 0.0 62.2418 62.2418
6.04 -2.71039 0.0 63.3014 63.3014
6.05 -1.96217 0.0 64.2562 64.2562
6.06 -0.598581 0.0 65.0876 65.0876
6.07 1.61753 0.0 65.7815 65.7815
6.08 4.91553 0.0 66.3295 66.3295
6.09 9.49934 0.0 66.7327 66.7327
6.1 15.5307 0.0 67.0013 67.0013
6.11 23.1148 0.0 67.1602 67.1602
6.12 32.2889 0.0 67.2411 67.2411
6.13 43.0149 0.0 67.2901 67.2901
6.14 55.1761 0.0 67.3579 67.3579
6.15 68.5782 0.0 67.5008 67.5008
6.16 82.955 0.0 67.772 67.772
6.17 97.9766 0.0 68.2224 68.2224
6.18 113.262 0.0 68.8871 68.8871
6.19 128.393 0.0 69.7918 69.7918
6.2 142.932 0.0 70.9416 70.9416
6.21 156.438 0.0 72.3238 72.3238
6.22 168.484 0.0 73.9016 73.9016
6.23 178.677 0.0 75.6283 75.6283
6.24 186.67 0.0 77.4348 77.4348
6.25 192.184 0.0 79.2474 79.2474
6.26 195.013 0.0 80.9892 80.9892
6.27 195.041 0.0 82.5879 82.5879
6.28 192.246 0.0 83.9763 83.9763
6.29 186.702 0.0 85.1083 85.1083
6.3 178.58 0.0 85.9561 85.9561
6.31 168.142 0.0 86.5122 86.5122
6.32 155.728 0.0 86.794 86.794
6.33 141.743 0.0 86.8398 86.8398
6.34 126.636 0.0 86.7024 86.7024
6.35 110.874 0.0 86.4494 86.4494
6.36 94.9185 0.0 86.1475 86.1475
6.37 79.1971 0.0 85.8659 85.8659
6.38 64.0738 0.0 85.6612 85.6612
6.39 49.8251 0.0 85.5739 85.5739
6.4 36.6182 0.0 85.6248 85.6248
6.41 24.4951 0.0 85.8129 85.8129
6.42 13.365 0.0 86.11 86.11
6.43 3.00437 0.0 86.4716 86.4716
6.44 -6.93301 0.0 86.835 86.835
6.45 -16.8964 0.0 87.1264 87.1264
6.46 -27.4099 0.0 87.2699 87.2699
6.47 -39.0366 0.0 87.1946 87.1946
6.48 -52.3371 0.0 86.8401 86.8401
6.49 -67.8249 0.0 86.1629 86.1629
6.5 -85.9218 0.0 85.1428 85.1428
6.51 -106.916 0.0 83.7821 83.7821
6.52 -130.927 0.0 82.108 82.108
6.53 -157.878 0.0 80.166 80.166
6.54 -187.482 0.0 78.0206 78.0206
6.55 -219.237 0.0 75.7413 75.7413
6.56 -252.443 0.0 73.4069 73.4069
6.57 -286.22 0.0 71.0834 71.0834
6.58 -319.555 0.0 68.8329 68.8329
6.59 -351.343 0.0 66.6981 66.6981
6.6 -380.452 0.0 64.7058 64.7058
6.61 -405.779 0.0 62.8601 62.8601
6.62 -426.318 0.0 61.1525 61.1525
6.63 -441.213 0.0 59.5532 59.5532
6.64 -449.818 0.0 58.0316 58.0316
6.65 -451.728 0.0 56.5523 56.5523
6.66 -446.816 0.0 55.0869 55.0869
6.67 -435.234 0.0 53.6131 53.6131
6.68 -417.414 0.0 52.1297 52.1297
6.69 -394.038 0.0 50.6535 50.6535
6.7 -366.006 0.0 49.2168 49.2168
6.71 -334.373 0.0 47.8745 47.8745
6.72 -300.297 0.0 46.6859 46.6859
6.73 -264.959 0.0 45.727 45.727
6.74 -229.5 0.0 45.0602 45.0602
6.75 -194.95 0.0 44.7461 44.7461
6.76 -162.168 0.0 44.824 44.824
6.77 -131.795 0.0 45.3057 45.3057
6.78 -104.22 0.0 46.1822 46.1822
6.79 -79.5688 0.0 47.4038 47.4038
6.8 -57.7029 0.0 48.9039 48.9039
6.81 -38.2462 0.0 50.5792 50.5792
6.82 -20.6231 0.0 52.3191 52.3191
6.83 -4.11348 0.0 53.9995 53.9995
6.84 12.0822 0.0 55.5058 55.5058
6.85 28.7715 0.0 56.7295 56.7295
6.86 46.6982 0.0 57.5928 57.5928
6.87 66.4742 0.0 58.0468 58.0468
6.88 88.5212 0.0 58.0818 58.0818
6.89 113.026 0.0 57.7239 57.7239
6.9 139.914 0.0 57.0412 57.0412
6.91 168.84 0.0 56.1285 56.1285
6.92 199.201 0.0 55.1059 55.1059
6.93 230.172 0.0 54.1032 54.1032
6.94 260.75 0.0 53.2522 53.2522
6.95 289.822 0.0 52.6637 52.6637
6.96 316.239 0.0 52.4272 52.4272
6.97 338.888 0.0 52.5948 52.5948
6.98 356.775 0.0 53.1748 53.1748
6.99 369.088 0.0 54.1288 54.1288
7 375.256 0.0 55.377 55.377
7.01 374.987 0.0 56.7975 56.7975
7.02 368.287 0.0 58.2405 58.2405
7.03 355.465 0.0 59.5404 59.5404
7.04 337.1 0.0 60.5274 60.5274
7.05 314.009 0.0 61.0402 61.0402
7.06 287.185 0.0 60.9496 60.9496
7.07 257.731 0.0 60.1583 60.1583
7.08 226.778 0.0 58.6167 58.6167
7.09 195.418 0.0 56.3248 56.3248
7.1 164.627 0.0 53.3384 53.3384
7.11 135.205 0.0 49.7537 49.7537
7.12 107.737 0.0 45.7124 45.7124
7.13 82.5571 0.0 41.3769 41.3769
7.14 59.7498 0.0 36.9302 36.9302
7.15 39.1584 0.0 32.5466 32.5466
7.16 20.4182 0.0 28.3908 28.3908
7.17 3.0044 0.0 24.5906 24.5906
7.18 -13.7093 0.0 21.2393 21.2393
7.19 -30.3844 0.0 18.3774 18.3774
7.2 -47.6505 0.0 16.0015 16.0015
7.21 -66.0425 0.0 14.0525 14.0525
7.22 -85.9466 0.0 12.4336 12.4336
7.23 -107.559 0.0 11.013 11.013
7.24 -130.862 0.0 9.63991 9.63991
7.25 -155.616 0.0 8.15505 8.15505
7.26 -181.372 0.0 6.41187 6.41187
7.27 -207.497 0.0 4.28915 4.28915
7.28 -233.219 0.0 1.69578 1.69578
7.29 -257.675 0.0 -1.40983 -1.40983
7.3 -279.975 0.0 -5.02097 -5.02097
7.31 -299.258 0.0 -9.07615 -9.07615
7.32 -314.752 0.0 -13.4675 -13.4675
7.33 -325.823 0.0 -18.0449 -18.0449
7.34 -332.019 0.0 -22.6313 -22.6313
7.35 -333.091 0.0 -27.0261 -27.0261
7.36 -329.011 0.0 -31.033 -31.033
7.37 -319.967 0.0 -34.467 -34.467
7.38 -306.347 0.0 -37.1735 -37.1735
7.39 -288.713 0.0 -39.0369 -39.0369
7.4 -267.759 0.0 -39.992 -39.992
7.41 -244.27 0.0 -40.0326 -40.0326
7.42 -219.075 0.0 -39.2049 -39.2049
7.43 -192.997 0.0 -37.6158 -37.6158
7.44 -166.813 0.0 -35.4129 -35.4129
7.45 -141.215 0.0 -32.7841 -32.7841
7.46 -116.782 0.0 -29.9364 -29.9364
7.47 -93.9592 0.0 -27.0888 -27.0888
7.48 -73.0522 0.0 -24.4478 -24.4478
7.49 -54.224 0.0 -22.199 -22.199
7.5 -37.5062 0.0 -20.4888 -20.4888
7.51 -22.8161 0.0 -19.4159 -19.4159
7.52 -9.9794 0.0 -19.0306 -19.0306
7.53 1.24369 0.0 -19.3197 -19.3197
7.54 11.1301 0.0 -20.2231 -20.2231
7.55 19.9669 0.0 -21.6299 -21.6299
7.56 28.0259 0.0 -23.3909 -23.3909
7.57 35.5428 0.0 -25.3338 -25.3338
7.58 42.7009 0.0 -27.2799 -27.2799
7.59 49.6209 0.0 -29.0509 -29.0509
7.6 56.3558 0.0 -30.4958 -30.4958
7.61 62.8926 0.0 -31.4936 -31.4936
7.62 69.1582 0.0 -31.9712 -31.9712
7.63 75.0303 0.0 -31.9033 -31.9033
7.64 80.3507 0.0 -31.3227 -31.3227
7.65 84.9414 0.0 -30.3084 -30.3084
7.66 88.6204 0.0 -28.9844 -28.9844
7.67 91.2167 0.0 -27.5087 -27.5087
7.68 92.5841 0.0 -26.0591 -26.0591
7.69 92.6111 0.0 -24.8171 -24.8171
7.7 91.2273 0.0 -23.9533 -23.9533
7.71 88.4058 0.0 -23.6098 -23.6098
7.72 84.1612 0.0 -23.8922 -23.8922
7.73 78.5442 0.0 -24.8552 -24.8552
7.74 71.632 0.0 -26.502 -26.502
7.75 63.5176 0.0 -28.7776 -28.7776
7.76 54.2974 0.0 -31.5814 -31.5814
7.77 44.0597 0.0 -34.7657 -34.7657
7.78 32.874 0.0 -38.158 -38.158
7.79 20.7846 0.0 -41.5656 -41.5656
7.8 7.80724 0.0 -44.8022 -44.8022
7.81 -6.06962 0.0 -47.6944 -47.6944
7.82 -20.878 0.0 -50.103 -50.103
7.83 -36.6594 0.0 -51.9296 -51.9296
7.84 -53.4503 0.0 -53.1287 -53.1287
7.85 -71.264 0.0 -53.705 -53.705
7.86 -90.0729 0.0 -53.7211 -53.7211
7.87 -109.791 0.0 -53.2793 -53.2793
7.88 -130.257 0.0 -52.5217 -52.5217
7.89 -151.23 0.0 -51.6095 -51.6095
7.9 -172.376 0.0 -50.7156 -50.7156
7.91 -193.283 0.0 -49.9968 -49.9968
7.92 -213.462 0.0 -49.5939 -49.5939
7.93 -232.371 0.0 -49.6064 -49.6064
7.94 -249.437 0.0 -50.0935 -50.0935
7.95 -264.087 0.0 -51.0627 -51.0627
7.96 -275.782 0.0 -52.4742 -52.4742
7.97 -284.042 0.0 -54.2446 -54.2446
7.98 -288.484 0.0 -56.2523 -56.2523
7.99 -288.836 0.0 -58.3551 -58.3551
8 -284.96 0.0 -60.4 -60.4
8.01 -276.854 0.0 -62.2387 -62.2387
8.02 -264.65 0.0 -63.7388 -63.7388
8.03 -248.598 0.0 -64.7992 -64.7992
8.04 -229.043 0.0 -65.3575 -65.3575
8.05 -206.396 0.0 -65.3895 -65.3895
8.06 -181.099 0.0 -64.9183 -64.9183
8.07 -153.589 0.0 -64.0068 -64.0068
8.08 -124.267 0.0 -62.7418 -62.7418
8.09 -93.468 0.0 -61.239 -61.239
8.1 -61.4437 0.0 -59.6233 -59.6233
8.11 -28.3562 0.0 -58.0138 -58.0138
8.12 5.71969 0.0 -56.5147 -56.5147
8.13 40.7795 0.0 -55.2065 -55.2065
8.14 76.8633 0.0 -54.1433 -54.1433
8.15 114.021 0.0 -53.3416 -53.3416
8.16 152.272 0.0 -52.7768 -52.7768
8.17 191.568 0.0 -52.4037 -52.4037
8.18 231.753 0.0 -52.1468 -52.1468
8.19 272.536 0.0 -51.921 -51.921
8.2 313.473 0.0 -51.6229 -51.6229
8.21 353.96 0.0 -51.1684 -51.1684
8.22 393.248 0.0 -50.4799 -50.4799
8.23 430.462 0.0 -49.5065 -49.5065
8.24 464.649 0.0 -48.2159 -48.2159
8.25 494.821 0.0 -46.6126 -46.6126
8.26 520.017 0.0 -44.7284 -44.7284
8.27 539.368 0.0 -42.6158 -42.6158
8.28 552.148 0.0 -40.3537 -40.3537
8.29 557.833 0.0 -38.0224 -38.0224
8.3 556.143 0.0 -35.7147 -35.7147
8.31 547.061 0.0 -33.5192 -33.5192
8.32 530.852 0.0 -31.505 -31.505
8.33 508.047 0.0 -29.738 -29.738
8.34 479.421 0.0 -28.2545 -28.2545
8.35 445.948 0.0 -27.0743 -27.0743
8.36 408.754 0.0 -26.1956 -26.1956
8.37 369.045 0.0 -25.6075 -25.6075
8.38 328.054 0.0 -25.2812 -25.2812
8.39 286.968 0.0 -25.1806 -25.1806
8.4 246.874 0.0 -25.2631 -25.2631
8.41 208.716 0.0 -25.5035 -25.5035
8.42 173.252 0.0 -25.864 -25.864
8.43 141.043 0.0 -26.3227 -26.3227
8.44 112.44 0.0 -26.8596 -26.8596
8.45 87.5968 0.0 -27.4688 -27.4688
8.46 66.4903 0.0 -28.1403 -28.1403
8.47 48.9474 0.0 -28.8664 -28.8664
8.48 34.6819 0.0 -29.6409 -29.6409
8.49 23.3314 0.0 -30.4514 -30.4514
8.5 14.4933 0.0 -31.2803 -31.2803
8.51 7.75695 0.0 -32.1049 -32.1049
8.52 2.73032 0.0 -32.8933 -32.8933
8.53 -0.941424 0.0 -33.6146 -33.6146
8.54 -3.56431 0.0 -34.2367 -34.2367
8.55 -5.39118 0.0 -34.7308 -34.7308
8.56 -6.62323 0.0 -35.0748 -35.0748
8.57 -7.41569 0.0 -35.2573 -35.2573
8.58 -7.88598 0.0 -35.276 -35.276
8.59 -8.1222 0.0 -35.1468 -35.1468
8.6 -8.1907 0.0 -34.8923 -34.8923
8.61 -8.14144 0.0 -34.5466 -34.5466
8.62 -8.01061 0.0 -34.1474 -34.1474
8.63 -7.8206 0.0 -33.7314 -33.7314
8.64 -7.57791 0.0 -33.3321 -33.3321
8.65 -7.26991 0.0 -32.9711 -32.9711
8.66 -6.86177 0.0 -32.6542 -32.6542
8.67 -6.2949 0.0 -32.3701 -32.3701
8.68 -5.48771 0.0 -32.0903 -32.0903
8.69 -4.33981 0.0 -31.7692 -31.7692
8.7 -2.73954 0.0 -31.3495 -31.3495
8.71 -0.574839 0.0 -30.7682 -30.7682
8.72 2.25367 0.0 -29.9627 -29.9627
8.73 5.8184 0.0 -28.8824 -28.8824
8.74 10.1511 0.0 -27.4901 -27.4901
8.75 15.2314 0.0 -25.7754 -25.7754
8.76 20.9788 0.0 -23.7538 -23.7538
8.77 27.2502 0.0 -21.4732 -21.4732
8.78 33.8424 0.0 -19.0084 -19.0084
8.79 40.501 0.0 -16.459 -16.459
8.8 46.9341 0.0 -13.9421 -13.9421
8.81 52.8303 0.0 -11.5833 -11.5833
8.82 57.8785 0.0 -9.50246 -9.50246
8.83 61.7879 0.0 -7.80794 -7.80794
8.84 64.3067 0.0 -6.58272 -6.58272
8.85 65.2354 0.0 -5.87441 -5.87441
8.86 64.4356 0.0 -5.69657 -5.69657
8.87 61.8314 0.0 -6.01938 -6.01938
8.88 57.4044 0.0 -6.7764 -6.7764
8.89 51.182 0.0 -7.86795 -7.86795
8.9 43.2206 0.0 -9.17164 -9.17164
8.91 33.5869 0.0 -10.5539 -10.5539
8.92 22.3371 0.0 -11.8831 -11.8831
8.93 9.50029 0.0 -13.0413 -13.0413
8.94 -4.93492 0.0 -13.9361 -13.9361
8.95 -21.0257 0.0 -14.5153 -14.5153
8.96 -38.8725 0.0 -14.7655 -14.7655
8.97 -58.6071 0.0 -14.7149 -14.7149
8.98 -80.3727 0.0 -14.4353 -14.4353
8.99 -104.297 0.0 -14.0365 -14.0365
9 -130.458 0.0 -13.6465 -13.6465
9.01 -158.853 0.0 -13.4086 -13.4086
9.02 -189.368 0.0 -13.4617 -13.4617
9.03 -221.747 0.0 -13.926 -13.926
9.04 -255.577 0.0 -14.9039 -14.9039
9.05 -290.283 0.0 -16.4464 -16.4464
9.06 -325.13 0.0 -18.5656 -18.5656
9.07 -359.25 0.0 -21.2236 -21.2236
9.08 -391.668 0.0 -24.3469 -24.3469
9.09 -421.348 0.0 -27.8158 -27.8158
9.1 -447.246 0.0 -31.4874 -31.4874
9.11 -468.361 0.0 -35.1998 -35.1998
9.12 -483.797 0.0 -38.799 -38.799
9.13 -492.806 0.0 -42.1356 -42.1356
9.14 -494.838 0.0 -45.0855 -45.0855
9.15 -489.563 0.0 -47.561 -47.561
9.16 -476.897 0.0 -49.5098 -49.5098
9.17 -456.998 0.0 -50.9259 -50.9259
9.18 -430.254 0.0 -51.838 -51.838
9.19 -397.257 0.0 -52.3096 -52.3096
9.2 -358.768 0.0 -52.4252 -52.4252
9.21 -315.668 0.0 -52.2854 -52.2854
9.22 -268.914 0.0 -51.9926 -51.9926
9.23 -219.493 0.0 -51.6459 -51.6459
9.24 -168.374 0.0 -51.3065 -51.3065
9.25 -116.474 0.0 -51.0295 -51.0295
9.26 -64.6374 0.0 -50.8336 -50.8336
9.27 -13.611 0.0 -50.704 -50.704
9.28 35.9537 0.0 -50.6087 -50.6087
9.29 83.4989 0.0 -50.4779 -50.4779
9.3 128.548 0.0 -50.241 -50.241
9.31 170.688 0.0 -49.8244 -49.8244
9.32 209.553 0.0 -49.1573 -49.1573
9.33 244.804 0.0 -48.179 -48.179
9.34 276.116 0.0 -46.8584 -46.8584
9.35 303.174 0.0 -45.1928 -45.1928
9.36 325.666 0.0 -43.2053 -43.2053
9.37 343.298 0.0 -40.9454 -40.9454
9.38 355.803 0.0 -38.4921 -38.4921
9.39 362.961 0.0 -35.946 -35.946
9.4 364.623 0.0 -33.4161 -33.4161
9.41 360.733 0.0 -31.0144 -31.0144
9.42 351.349 0.0 -28.8529 -28.8529
9.43 336.655 0.0 -27.0267 -27.0267
9.44 316.972 0.0 -25.6149 -25.6149
9.45 292.756 0.0 -24.6772 -24.6772
9.46 264.588 0.0 -24.2437 -24.2437
9.47 233.151 0.0 -24.3224 -24.3224
9.48 199.21 0.0 -24.8916 -24.8916
9.49 163.57 0.0 -25.9247 -25.9247
9.5 127.047 0.0 -27.3665 -27.3665
9.51 90.4314 0.0 -29.1564 -29.1564
9.52 54.4492 0.0 -31.2292 -31.2292
9.53 19.7399 0.0 -33.5149 -33.5149
9.54 -13.1665 0.0 -35.9565 -35.9565
9.55 -43.8597 0.0 -38.4923 -38.4923
9.56 -72.0514 0.0 -41.0726 -41.0726
9.57 -97.5671 0.0 -43.6509 -43.6509
9.58 -120.331 0.0 -46.1963 -46.1963
9.59 -140.343 0.0 -48.6775 -48.6775
9.6 -157.654 0.0 -51.0718 -51.0718
9.61 -172.342 0.0 -53.3584 -53.3584
9.62 -184.481 0.0 -55.5203 -55.5203
9.63 -194.126 0.0 -57.5488 -57.5488
9.64 -201.297 0.0 -59.4295 -59.4295
9.65 -205.971 0.0 -61.1542 -61.1542
9.66 -208.08 0.0 -62.7199 -62.7199
9.67 -207.525 0.0 -64.1244 -64.1244
9.68 -204.184 0.0 -65.3684 -65.3684
9.69 -197.935 0.0 -66.4535 -66.4535
9.7 -188.68 0.0 -67.3848 -67.3848
9.71 -176.362 0.0 -68.1664 -68.1664
9.72 -160.988 0.0 -68.8019 -68.8019
9.73 -142.65 0.0 -69.294 -69.294
9.74 -121.531 0.0 -69.6335 -69.6335
9.75 -97.9111 0.0 -69.8139 -69.8139
9.76 -72.1689 0.0 -69.8161 -69.8161
9.77 -44.7677 0.0 -69.6193 -69.6193
9.78 -16.2433 0.0 -69.2007 -69.2007
9.79 12.8166 0.0 -68.5266 -68.5266
9.8 41.795 0.0 -67.572 -67.572
9.81 70.0699 0.0 -66.3159 -66.3159
9.82 97.037 0.0 -64.749 -64.749
9.83 122.131 0.0 -62.8654 -62.8654
9.84 144.844 0.0 -60.6842 -60.6842
9.85 164.735 0.0 -58.2364 -58.2364
9.86 181.441 0.0 -55.5721 -55.5721
9.87 194.676 0.0 -52.7537 -52.7537
9.88 204.23 0.0 -49.8555 -49.8555
9.89 209.963 0.0 -46.9602 -46.9602
9.9 211.799 0.0 -44.1529 -44.1529
9.91 209.711 0.0 -41.5066 -41.5066
9.92 203.715 0.0 -39.0898 -39.0898
9.93 193.863 0.0 -36.9487 -36.9487
9.94 180.234 0.0 -35.1083 -35.1083
9.95 162.936 0.0 -33.5739 -33.5739
9.96 142.101 0.0 -32.3237 -32.3237
9.97 117.893 0.0 -31.3147 -31.3147
9.98 90.5131 0.0 -30.4851 -30.4851
9.99 60.2085 0.0 -29.7715 -29.7715
10 27.2794 0.0 -29.0984 -29.0984
10.01 -7.91141 0.0 -28.3976 -28.3976
10.02 -44.9324 0.0 -27.6146 -27.6146
10.03 -83.2804 0.0 -26.7066 -26.7066
10.04 -122.381 0.0 -25.6671 -25.6671
10.05 -161.594 0.0 -24.5023 -24.5023
10.06 -200.223 0.0 -23.2451 -23.2451
10.07 -237.533 0.0 -21.9474 -21.9474
10.08 -272.766 0.0 -20.6845 -20.6845
10.09 -305.171 0.0 -19.5299 -19.5299
10.1 -334.022 0.0 -18.5592 -18.5592
10.11 -358.65 0.0 -17.839 -17.839
10.12 -378.469 0.0 -17.4216 -17.4216
10.13 -393 0.0 -17.3336 -17.3336
10.14 -401.891 0.0 -17.5736 -17.5736
10.15 -404.935 0.0 -18.1114 -18.1114
10.16 -402.076 0.0 -18.8933 -18.8933
10.17 -393.418 0.0 -19.8371 -19.8371
10.18 -379.217 0.0 -20.8477 -20.8477
10.19 -359.873 0.0 -21.8189 -21.8189
10.2 -335.91 0.0 -22.6411 -22.6411
10.21 -307.956 0.0 -23.2161 -23.2161
10.22 -276.716 0.0 -23.4578 -23.4578
10.23 -242.944 0.0 -23.304 -23.304
10.24 -207.411 0.0 -22.7089 -22.7089
10.25 -170.879 0.0 -21.6594 -21.6594
10.26 -134.071 0.0 -20.1636 -20.1636
10.27 -97.6557 0.0 -18.2503 -18.2503
10.28 -62.2222 0.0 -15.9658 -15.9658
10.29 -28.2744 0.0 -13.3586 -13.3586
10.3 3.77585 0.0 -10.4869 -10.4869
10.31 33.6084 0.0 -7.40638 -7.40638
10.32 60.9884 0.0 -4.16841 -4.16841
10.33 85.7567 0.0 -0.802695 -0.802695
10.34 107.817 0.0 2.65736 2.65736
10.35 127.12 0.0 6.19393 6.19393
10.36 143.653 0.0 9.79276 9.79276
10.37 157.424 0.0 13.4497 13.4497
10.38 168.454 0.0 17.1504 17.1504
10.39 176.768 0.0 20.8803 20.8803
10.4 182.397 0.0 24.6139 24.6139
10.41 185.379 0.0 28.3183 28.3183
10.42 185.761 0.0 31.9462 31.9462
10.43 183.612 0.0 35.4453 35.4453
10.44 179.029 0.0 38.7578 38.7578
10.45 172.151 0.0 41.8222 41.8222
10.46 163.162 0.0 44.5883 44.5883
10.47 152.301 0.0 47.0131 47.0131
10.48 139.863 0.0 49.074 49.074
10.49 126.196 0.0 50.7653 50.7653
10.5 111.692 0.0 52.1057 52.1057
10.51 96.7795 0.0 53.1335 53.1335
10.52 81.9008 0.0 53.9082 53.9082
10.53 67.4979 0.0 54.5011 54.5011
10.54 53.9897 0.0 54.9873 54.9873
10.55 41.7518 0.0 55.4412 55.4412
10.56 31.0983 0.0 55.9287 55.9287
10.57 22.2668 0.0 56.4992 56.4992
10.58 15.4083 0.0 57.1747 57.1747
10.59 10.5835 0.0 57.9565 57.9565
10.6 7.76481 0.0 58.8172 58.8172
10.61 6.84517 0.0 59.7088 59.7088
10.62 7.65182 0.0 60.5632 60.5632
10.63 9.96492 0.0 61.3051 61.3051
10.64 13.5386 0.0 61.8614 61.8614
10.65 18.1228 0.0 62.1642 62.1642
10.66 23.4843 0.0 62.1717 62.1717
10.67 29.4242 0.0 61.8658 61.8658
10.68 35.7911 0.0 61.2599 61.2599
10.69 42.4882 0.0 60.4018 60.4018
10.7 49.4739 0.0 59.3721 59.3721
10.71 56.7558 0.0 58.2722 58.2722
10.72 64.3783 0.0 57.2237 57.2237
10.73 72.4061 0.0 56.3489 56.3489
10.74 80.9033 0.0 55.7657 55.7657
10.75 89.9121 0.0 55.5689 55.5689
10.76 99.4317 0.0 55.8243 55.8243
10.77 109.4 0.0 56.5588 56.5588
10.78 119.681 0.0 57.7496 57.7496
10.79 130.058 0.0 59.3404 59.3404
10.8 140.229 0.0 61.2257 61.2257
10.81 149.823 0.0 63.2747 63.2747
10.82 158.406 0.0 65.3296 65.3296
10.83 165.507 0.0 67.2369 67.2369
10.84 170.641 0.0 68.8438 68.8438
10.85 173.34 0.0 70.0261 70.0261
10.86 173.18 0.0 70.6931 70.6931
10.87 169.811 0.0 70.7997 70.7997
10.88 162.983 0.0 70.3503 70.3503
10.89 152.56 0.0 69.4028 69.4028
10.9 138.541 0.0 68.0576 68.0576
10.91 121.061 0.0 66.4494 66.4494
10.92 100.388 0.0 64.7395 64.7395
10.93 76.9183 0.0 63.0987 63.0987
10.94 51.1602 0.0 61.6878 61.6878
10.95 23.7116 0.0 60.6404 60.6404
10.96 -4.76187 0.0 60.0619 60.0619
10.97 -33.5528 0.0 60.0068 60.0068
10.98 -61.9374 0.0 60.4834 60.4834
10.99 -89.1992 0.0 61.4392 61.4392
11 -114.65 0.0 62.7822 62.7822
11.01 -137.648 0.0 64.3803 64.3803
11.02 -157.61 0.0 66.072 66.072
11.03 -174.02 0.0 67.6896 67.6896
11.04 -186.434 0.0 69.06 69.06
11.05 -194.484 0.0 70.0372 70.0372
11.06 -197.875 0.0 70.5032 70.5032
11.07 -196.385 0.0 70.3787 70.3787
11.08 -189.861 0.0 69.6358 69.6358
11.09 -178.222 0.0 68.2905 68.2905
11.1 -161.455 0.0 66.4084 66.4084
11.11 -139.624 0.0 64.089 64.089
11.12 -112.866 0.0 61.4711 61.4711
11.13 -81.4034 0.0 58.7004 58.7004
11.14 -45.5471 0.0 55.9311 55.9311
11.15 -5.70445 0.0 53.3104 53.3104
11.16 37.6166 0.0 50.9734 50.9734
11.17 83.8046 0.0 49.0204 49.0204
11.18 132.146 0.0 47.5243 47.5243
11.19 181.829 0.0 46.5179 46.5179
11.2 231.958 0.0 46.017 46.017
11.21 281.565 0.0 45.9906 45.9906
11.22 329.635 0.0 46.3935 46.3935
11.23 375.13 0.0 47.1573 47.1573
11.24 417.017 0.0 48.218 48.218
11.25 454.305 0.0 49.4978 49.4978
11.26 486.075 0.0 50.9267 50.9267
11.27 511.513 0.0 52.4431 52.4431
11.28 529.939 0.0 53.996 53.996
11.29 540.835 0.0 55.5518 55.5518
11.3 543.865 0.0 57.0804 57.0804
11.31 538.885 0.0 58.5626 58.5626
11.32 525.957 0.0 59.9857 59.9857
11.33 505.341 0.0 61.332 61.332
11.34 477.489 0.0 62.5868 62.5868
11.35 443.031 0.0 63.7296 63.7296
11.36 402.753 0.0 64.7391 64.7391
11.37 357.568 0.0 65.576 65.576
11.38 308.491 0.0 66.2052 66.2052
11.39 256.603 0.0 66.5912 66.5912
11.4 203.021 0.0 66.6993 66.6993
11.41 148.864 0.0 66.4899 66.4899
11.42 95.2252 0.0 65.9428 65.9428
11.43 43.1412 0.0 65.0448 65.0448
11.44 -6.43058 0.0 63.7996 63.7996
11.45 -52.6332 0.0 62.2132 62.2132
11.46 -94.7275 0.0 60.3145 60.3145
11.47 -132.105 0.0 58.1447 58.1447
11.48 -164.296 0.0 55.7533 55.7533
11.49 -190.98 0.0 53.1887 53.1887
11.5 -211.98 0.0 50.5131 50.5131
11.51 -227.27 0.0 47.7841 47.7841
11.52 -236.966 0.0 45.0607 45.0607
11.53 -241.319 0.0 42.3957 42.3957
11.54 -240.707 0.0 39.8341 39.8341
11.55 -235.622 0.0 37.4228 37.4228
11.56 -226.651 0.0 35.1958 35.1958
11.57 -214.46 0.0 33.1864 33.1864
11.58 -199.774 0.0 31.424 31.424
11.59 -183.349 0.0 29.9331 29.9331
11.6 -165.953 0.0 28.7346 28.7346
11.61 -148.336 0.0 27.8429 27.8429
11.62 -131.211 0.0 27.2746 27.2746
11.63 -115.226 0.0 27.0339 27.0339
11.64 -100.949 0.0 27.1196 27.1196
11.65 -88.8477 0.0 27.5177 27.5177
11.66 -79.2836 0.0 28.2096 28.2096
11.67 -72.503 0.0 29.161 29.161
11.68 -68.6407 0.0 30.3267 30.3267
11.69 -67.7263 0.0 31.6553 31.6553
11.7 -69.6972 0.0 33.0852 33.0852
11.71 -74.4159 0.0 34.5549 34.5549
11.72 -81.6905 0.0 36.0025 36.0025
11.73 -91.2964 0.0 37.3764 37.3764
11.74 -102.998 0.0 38.6298 38.6298
11.75 -116.567 0.0 39.7368 39.7368
11.76 -131.798 0.0 40.6868 40.6868
11.77 -148.517 0.0 41.4874 41.4874
11.78 -166.586 0.0 42.168 42.168
11.79 -185.894 0.0 42.7639 42.7639
11.8 -206.35 0.0 43.3276 43.3276
11.81 -227.863 0.0 43.9128 43.9128
11.82 -250.323 0.0 44.5705 44.5705
11.83 -273.574 0.0 45.3358 45.3358
11.84 -297.394 0.0 46.2306 46.2306
11.85 -321.471 0.0 47.2529 47.2529
11.86 -345.391 0.0 48.376 48.376
11.87 -368.628 0.0 49.5441 49.5441
11.88 -390.547 0.0 50.6794 50.6794
11.89 -410.417 0.0 51.6878 51.6878
11.9 -427.43 0.0 52.4663 52.4663
11.91 -440.74 0.0 52.9091 52.9091
11.92 -449.497 0.0 52.92 52.92
11.93 -452.897 0.0 52.4292 52.4292
11.94 -450.231 0.0 51.396 51.396
11.95 -440.931 0.0 49.8163 49.8163
11.96 -424.617 0.0 47.7292 47.7292
11.97 -401.131 0.0 45.2175 45.2175
11.98 -370.562 0.0 42.4005 42.4005
11.99 -333.261 0.0 39.4385 39.4385
12 -289.841 0.0 36.5035 36.5035
12.01 -241.156 0.0 33.7823 33.7823
12.02 -188.274 0.0 31.4565 31.4565
12.03 -132.436 0.0 29.6811 29.6811
12.04 -75.001 0.0 28.599 28.599
12.05 -17.3903 0.0 28.2903 28.2903
12.06 38.9752 0.0 28.7948 28.7948
12.07 92.7351 0.0 30.0929 30.0929
12.08 142.646 0.0 32.1283 32.1283
12.09 187.628 0.0 34.7826 34.7826
12.1 226.808 0.0 37.9062 37.9062
12.11 259.538 0.0 41.3211 41.3211
12.12 285.416 0.0 44.848 44.848
12.13 304.283 0.0 48.2992 48.2992
12.14 316.212 0.0 51.509 51.509
12.15 321.488 0.0 54.3398 54.3398
12.16 320.578 0.0 56.6906 56.6906
12.17 314.096 0.0 58.5018 58.5018
12.18 302.765 0.0 59.7594 59.7594
12.19 287.378 0.0 60.4894 60.4894
12.2 268.763 0.0 60.7495 60.7495
12.21 247.752 0.0 60.624 60.624
12.22 225.146 0.0 60.2146 60.2146
12.23 201.7 0.0 59.6255 59.6255
12.24 178.102 0.0 58.9509 58.9509
12.25 154.962 0.0 58.2695 58.2695
12.26 132.805 0.0 57.6335 57.6335
12.27 112.07 0.0 57.0712 57.0712
12.28 93.1089 0.0 56.5821 56.5821
12.29 76.1886 0.0 56.1304 56.1304
12.3 61.4939 0.0 55.6661 55.6661
12.31 49.1323 0.0 55.1217 55.1217
12.32 39.1382 0.0 54.4258 54.4258
12.33 31.4771 0.0 53.5029 53.5029
12.34 26.0507 0.0 52.2943 52.2943
12.35 22.702 0.0 50.756 50.756
12.36 21.2219 0.0 48.8681 48.8681
12.37 21.3557 0.0 46.6353 46.6353
12.38 22.8122 0.0 44.0908 44.0908
12.39 25.2728 0.0 41.2882 41.2882
12.4 28.4027 0.0 38.3043 38.3043
12.41 31.8617 0.0 35.2273 35.2273
12.42 35.3164 0.0 32.1536 32.1536
12.43 38.4507 0.0 29.1763 29.1763
12.44 40.9764 0.0 26.3856 26.3856
12.45 42.6412 0.0 23.8568 23.8568
12.46 43.2351 0.0 21.6439 21.6439
12.47 42.5939 0.0 19.7841 19.7841
12.48 40.6004 0.0 18.2906 18.2906
12.49 37.1828 0.0 17.1542 17.1542
12.5 32.3114 0.0 16.3466 16.3466
12.51 25.9935 0.0 15.8225 15.8225
12.52 18.2673 0.0 15.5217 15.5217
12.53 9.19589 0.0 15.3791 15.3791
12.54 -1.13814 0.0 15.3221 15.3221
12.55 -12.6373 0.0 15.2833 15.2833
12.56 -25.192 0.0 15.193 15.193
12.57 -38.6812 0.0 14.9972 14.9972
12.58 -52.9721 0.0 14.6431 14.6431
12.59 -67.9172 0.0 14.0952 14.0952
12.6 -83.3515 0.0 13.3305 13.3305
12.61 -99.0886 0.0 12.3386 12.3386
12.62 -114.917 0.0 11.1177 11.1177
12.63 -130.596 0.0 9.68431 9.68431
12.64 -145.859 0.0 8.06119 8.06119
12.65 -160.409 0.0 6.28522 6.28522
12.66 -173.926 0.0 4.39285 4.39285
12.67 -186.07 0.0 2.43103 2.43103
12.68 -196.492 0.0 0.445467 0.445467
12.69 -204.844 0.0 -1.51698 -1.51698
12.7 -210.788 0.0 -3.42127 -3.42127
12.71 -214.012 0.0 -5.23217 -5.23217
12.72 -214.243 0.0 -6.9288 -6.9288
12.73 -211.261 0.0 -8.50448 -8.50448
12.74 -204.906 0.0 -9.96453 -9.96453
12.75 -195.098 0.0 -11.3315 -11.3315
12.76 -181.838 0.0 -12.6394 -12.6394
12.77 -165.215 0.0 -13.935 -13.935
12.78 -145.416 0.0 -15.2723 -15.2723
12.79 -122.72 0.0 -16.708 -16.708
12.8 -97.5017 0.0 -18.2943 -18.2943
12.81 -70.223 0.0 -20.08 -20.08
12.82 -41.4272 0.0 -22.0978 -22.0978
12.83 -11.728 0.0 -24.354 -24.354
12.84 18.2048 0.0 -26.8418 -26.8418
12.85 47.6607 0.0 -29.5227 -29.5227
12.86 75.9086 0.0 -32.3386 -32.3386
12.87 102.217 0.0 -35.203 -35.203
12.88 125.878 0.0 -38.0148 -38.0148
12.89 146.229 0.0 -40.6654 -40.6654
12.9 162.681 0.0 -43.042 -43.042
12.91 174.736 0.0 -45.0356 -45.0356
12.92 182.011 0.0 -46.5609 -46.5609
12.93 184.257 0.0 -47.5562 -47.5562
12.94 181.37 0.0 -47.9905 -47.9905
12.95 173.401 0.0 -47.8756 -47.8756
12.96 160.553 0.0 -47.2603 -47.2603
12.97 143.185 0.0 -46.2334 -46.2334
12.98 121.794 0.0 -44.9156 -44.9156
12.99 96.9969 0.0 -43.4599 -43.4599
13 69.5138 0.0 -42.0308 -42.0308
13.01 40.135 0.0 -40.799 -40.799
13.02 9.69326 0.0 -39.9263 -39.9263
13.03 -20.967 0.0 -39.55 -39.55
13.04 -51.0206 0.0 -39.7874 -39.7874
13.05 -79.6888 0.0 -40.7052 -40.7052
13.06 -106.264 0.0 -42.3283 -42.3283
13.07 -130.127 0.0 -44.6302 -44.6302
13.08 -150.762 0.0 -47.548 -47.548
13.09 -167.763 0.0 -50.9706 -50.9706
13.1 -180.837 0.0 -54.7574 -54.7574
13.11 -189.796 0.0 -58.7474 -58.7474
13.12 -194.556 0.0 -62.7766 -62.7766
13.13 -195.128 0.0 -66.6813 -66.6813
13.14 -191.601 0.0 -70.3169 -70.3169
13.15 -184.142 0.0 -73.566 -73.566
13.16 -172.981 0.0 -76.3473 -76.3473
13.17 -158.408 0.0 -78.6194 -78.6194
13.18 -140.769 0.0 -80.3801 -80.3801
13.19 -120.465 0.0 -81.6685 -81.6685
13.2 -97.9526 0.0 -82.5464 -82.5464
13.21 -73.7401 0.0 -83.1079 -83.1079
13.22 -48.3913 0.0 -83.4557 -83.4557
13.23 -22.519 0.0 -83.698 -83.698
13.24 3.22144 0.0 -83.9254 -83.9254
13.25 28.1444 0.0 -84.2184 -84.2184
13.26 51.5516 0.0 -84.6316 -84.6316
13.27 72.7543 0.0 -85.1873 -85.1873
13.28 91.1 0.0 -85.88 -85.88
13.29 106.002 0.0 -86.6705 -86.6705
13.3 116.972 0.0 -87.4995 -87.4995
13.31 123.648 0.0 -88.2886 -88.2886
13.32 125.819 0.0 -88.9495 -88.9495
13.33 123.449 0.0 -89.3961 -89.3961
13.34 116.689 0.0 -89.5511 -89.5511
13.35 105.877 0.0 -89.3568 -89.3568
13.36 91.5315 0.0 -88.7775 -88.7775
13.37 74.3357 0.0 -87.8127 -87.8127
13.38 55.1074 0.0 -86.4894 -86.4894
13.39 34.7641 0.0 -84.8651 -84.8651
13.4 14.2816 0.0 -83.0246 -83.0246
13.41 -5.35156 0.0 -81.0764 -81.0764
13.42 -23.1787 0.0 -79.1373 -79.1373
13.43 -38.3177 0.0 -77.3313 -77.3313
13.44 -49.9985 0.0 -75.7735 -75.7735
13.45 -57.5924 0.0 -74.5696 -74.5696
13.46 -60.6333 0.0 -73.7997 -73.7997
13.47 -58.8284 0.0 -73.5146 -73.5146
13.48 -52.0602 0.0 -73.7338 -73.7338
13.49 -40.3794 0.0 -74.4376 -74.4376
13.5 -23.9905 0.0 -75.5765 -75.5765
13.51 -3.23275 0.0 -77.0672 -77.0672
13.52 21.4425 0.0 -78.7985 -78.7985
13.53 49.495 0.0 -80.645 -80.645
13.54 80.3176 0.0 -82.4556 -82.4556
13.55 113.257 0.0 -84.0909 -84.0909
13.56 147.629 0.0 -85.4081 -85.4081
13.57 182.734 0.0 -86.2856 -86.2856
13.58 217.863 0.0 -86.6078 -86.6078
13.59 252.309 0.0 -86.3005 -86.3005
13.6 285.374 0.0 -85.3121 -85.3121
13.61 316.371 0.0 -83.6291 -83.6291
13.62 344.638 0.0 -81.261 -81.261
13.63 369.546 0.0 -78.2551 -78.2551
13.64 390.516 0.0 -74.6856 -74.6856
13.65 407.033 0.0 -70.6489 -70.6489
13.66 418.671 0.0 -66.2511 -66.2511
13.67 425.112 0.0 -61.6165 -61.6165
13.68 426.165 0.0 -56.8643 -56.8643
13.69 421.792 0.0 -52.1147 -52.1147
13.7 412.113 0.0 -47.4795 -47.4795
13.71 397.419 0.0 -43.0504 -43.0504
13.72 378.173 0.0 -38.9059 -38.9059
13.73 354.992 0.0 -35.1022 -35.1022
13.74 328.635 0.0 -31.6828 -31.6828
13.75 299.967 0.0 -28.6614 -28.6614
13.76 269.929 0.0 -26.0458 -26.0458
13.77 239.487 0.0 -23.826 -23.826
13.78 209.593 0.0 -21.9762 -21.9762
13.79 181.136 0.0 -20.4801 -20.4801
13.8 154.899 0.0 -19.3063 -19.3063
13.81 131.525 0.0 -18.4288 -18.4288
13.82 111.485 0.0 -17.8236 -17.8236
13.83 95.064 0.0 -17.476 -17.476
13.84 82.3546 0.0 -17.3676 -17.3676
13.85 73.26 0.0 -17.488 -17.488
13.86 67.5109 0.0 -17.8269 -17.8269
13.87 64.6906 0.0 -18.3726 -18.3726
13.88 64.2652 0.0 -19.1102 -19.1102
13.89 65.6194 0.0 -20.0154 -20.0154
13.9 68.0921 0.0 -21.0591 -21.0591
13.91 71.0119 0.0 -22.1989 -22.1989
13.92 73.7276 0.0 -23.3876 -23.3876
13.93 75.6342 0.0 -24.5662 -24.5662
13.94 76.1918 0.0 -25.6708 -25.6708
13.95 74.9383 0.0 -26.6393 -26.6393
13.96 71.4955 0.0 -27.4095 -27.4095
13.97 65.5704 0.0 -27.9254 -27.9254
13.98 56.9525 0.0 -28.1465 -28.1465
13.99 45.5084 0.0 -28.0474 -28.0474
14 31.177 0.0 -27.621 -27.621
14.01 13.9643 0.0 -26.8813 -26.8813
14.02 -6.05928 0.0 -25.8607 -25.8607
14.03 -28.7595 0.0 -24.6095 -24.6095
14.04 -53.9366 0.0 -23.1994 -23.1994
14.05 -81.3224 0.0 -21.7006 -21.7006
14.06 -110.576 0.0 -20.1957 -20.1957
14.07 -141.283 0.0 -18.7575 -18.7575
14.08 -172.95 0.0 -17.4601 -17.4601
14.09 -205.014 0.0 -16.3568 -16.3568
14.1 -236.847 0.0 -15.4884 -15.4884
14.11 -267.766 0.0 -14.8728 -14.8728
14.12 -297.058 0.0 -14.5187 -14.5187
14.13 -323.998 0.0 -14.4103 -14.4103
14.14 -347.876 0.0 -14.5224 -14.5224
14.15 -368.028 0.0 -14.8209 -14.8209
14.16 -383.865 0.0 -15.2738 -15.2738
14.17 -394.898 0.0 -15.8468 -15.8468
14.18 -400.762 0.0 -16.5148 -16.5148
14.19 -401.234 0.0 -17.2636 -17.2636
14.2 -396.244 0.0 -18.092 -18.092
14.21 -385.875 0.0 -19.0106 -19.0106
14.22 -370.363 0.0 -20.0368 -20.0368
14.23 -350.08 0.0 -21.1978 -21.1978
14.24 -325.52 0.0 -22.5124 -22.5124
14.25 -297.272 0.0 -23.997 -23.997
14.26 -266 0.0 -25.6549 -25.6549
14.27 -232.413 0.0 -27.4662 -27.4662
14.28 -197.24 0.0 -29.3929 -29.3929
14.29 -161.21 0.0 -31.3668 -31.3668
14.3 -125.031 0.0 -33.2984 -33.2984
14.31 -89.3734 0.0 -35.0826 -35.0826
14.32 -54.8643 0.0 -36.6037 -36.6037
14.33 -22.076 0.0 -37.732 -37.732
14.34 8.47636 0.0 -38.3554 -38.3554
14.35 36.3367 0.0 -38.3767 -38.3767
14.36 61.1097 0.0 -37.7317 -37.7317
14.37 82.4625 0.0 -36.3835 -36.3835
14.38 100.127 0.0 -34.3444 -34.3444
14.39 113.906 0.0 -31.6731 -31.6731
14.4 123.676 0.0 -28.4716 -28.4716
14.41 129.395 0.0 -24.8788 -24.8788
14.42 131.112 0.0 -21.0671 -21.0671
14.43 128.971 0.0 -17.2267 -17.2267
14.44 123.213 0.0 -13.5521 -13.5521
14.45 114.181 0.0 -10.231 -10.231
14.46 102.311 0.0 -7.42792 -7.42792
14.47 88.1244 0.0 -5.27142 -5.27142
14.48 72.2125 0.0 -3.84652 -3.84652
14.49 55.2147 0.0 -3.19075 -3.19075
14.5 37.7936 0.0 -3.28958 -3.28958
14.51 20.6056 0.0 -4.08061 -4.08061
14.52 4.27134 0.0 -5.46234 -5.46234
14.53 -10.6546 0.0 -7.30242 -7.30242
14.54 -23.7103 0.0 -9.45468 -9.45468
14.55 -34.5492 0.0 -11.7648 -11.7648
14.56 -42.9558 0.0 -14.0912 -14.0912
14.57 -48.8541 0.0 -16.3119 -16.3119
14.58 -52.3078 0.0 -18.3382 -18.3382
14.59 -53.5125 0.0 -20.1125 -20.1125
14.6 -52.7798 0.0 -21.6202 -21.6202
14.61 -50.5155 0.0 -22.8765 -22.8765
14.62 -47.1932 0.0 -23.9278 -23.9278
14.63 -43.325 0.0 -24.84 -24.84
14.64 -39.4317 0.0 -25.6863 -25.6863
14.65 -36.0142 0.0 -26.5368 -26.5368
14.66 -33.5288 0.0 -27.4492 -27.4492
14.67 -32.3663 0.0 -28.4577 -28.4577
14.68 -32.8369 0.0 -29.5671 -29.5671
14.69 -35.1609 0.0 -30.7501 -30.7501
14.7 -39.465 0.0 -31.953 -31.953
14.71 -45.7835 0.0 -33.0945 -33.0945
14.72 -54.0641 0.0 -34.0759 -34.0759
14.73 -64.1757 0.0 -34.7923 -34.7923
14.74 -75.9191 0.0 -35.1499 -35.1499
14.75 -89.0374 0.0 -35.0656 -35.0656
14.76 -103.226 0.0 -34.4888 -34.4888
14.77 -118.143 0.0 -33.4038 -33.4038
14.78 -133.416 0.0 -31.8319 -31.8319
14.79 -148.65 0.0 -29.8441 -29.8441
14.8 -163.433 0.0 -27.5434 -27.5434
14.81 -177.341 0.0 -25.065 -25.065
14.82 -189.947 0.0 -22.5666 -22.5666
14.83 -200.826 0.0 -20.2147 -20.2147
14.84 -209.563 0.0 -18.1676 -18.1676
14.85 -215.766 0.0 -16.5676 -16.5676
14.86 -219.078 0.0 -15.5214 -15.5214
14.87 -219.188 0.0 -15.1007 -15.1007
14.88 -215.853 0.0 -15.3267 -15.3267
14.89 -208.907 0.0 -16.1701 -16.1701
14.9 -198.276 0.0 -17.5589 -17.5589
14.91 -183.992 0.0 -19.3696 -19.3696
14.92 -166.2 0.0 -21.455 -21.455
14.93 -145.159 0.0 -23.6415 -23.6415
14.94 -121.242 0.0 -25.7502 -25.7502
14.95 -94.9296 0.0 -27.5984 -27.5984
14.96 -66.7938 0.0 -29.0312 -29.0312
14.97 -37.4803 0.0 -29.9147 -29.9147
14.98 -7.68497 0.0 -30.159 -30.159
14.99 21.8726 0.0 -29.7056 -29.7056
15 50.4774 0.0 -28.5474 -28.5474
15.01 77.4479 0.0 -26.7169 -26.7169
15.02 102.163 0.0 -24.2887 -24.2887
15.03 124.084 0.0 -21.3675 -21.3675
15.04 142.78 0.0 -18.074 -18.074
15.05 157.934 0.0 -14.553 -14.553
15.06 169.357 0.0 -10.9475 -10.9475
15.07 176.989 0.0 -7.40122 -7.40122
15.08 180.892 0.0 -4.03584 -4.03584
15.09 181.241 0.0 -0.964294 -0.964294
15.1 178.312 0.0 1.7268 1.7268
15.11 172.459 0.0 3.98389 3.98389
15.12 164.095 0.0 5.77061 5.77061
15.13 153.671 0.0 7.08109 7.08109
15.14 141.65 0.0 7.93608 7.93608
15.15 128.49 0.0 8.37577 8.37577
15.16 114.625 0.0 8.4542 8.4542
15.17 100.447 0.0 8.24243 8.24243
15.18 86.297 0.0 7.81799 7.81799
15.19 72.4587 0.0 7.26526 7.26526
15.2 59.1522 0.0 6.66178 6.66178
15.21 46.5363 0.0 6.08368 6.08368
15.22 34.7121 0.0 5.59588 5.59588
15.23 23.7296 0.0 5.2554 5.2554
15.24 13.5961 0.0 5.09586 5.09586
15.25 4.28617 0.0 5.13783 5.13783
15.26 -4.24894 0.0 5.38094 5.38094
15.27 -12.0716 0.0 5.80757 5.80757
15.28 -19.2498 0.0 6.37778 6.37778
15.29 -25.8511 0.0 7.03807 7.03807
15.3 -31.9382 0.0 7.72221 7.72221
15.31 -37.5673 0.0 8.35434 8.35434
15.32 -42.7881 0.0 8.8591 8.8591
15.33 -47.6454 0.0 9.1654 9.1654
15.34 -52.1824 0.0 9.21043 9.21043
15.35 -56.4439 0.0 8.95286 8.95286
15.36 -60.4787 0.0 8.37074 8.37074
15.37 -64.3421 0.0 7.46905 7.46905
15.38 -68.0944 0.0 6.28435 6.28435
15.39 -71.7989 0.0 4.87387 4.87387
15.4 -75.5159 0.0 3.32593 3.32593
15.41 -79.2946 0.0 1.74261 1.74261
15.42 -83.1623 0.0 0.237291 0.237291
15.43 -87.1127 0.0 -1.07026 -1.07026
15.44 -91.0939 0.0 -2.07308 -2.07308
15.45 -94.9969 0.0 -2.68205 -2.68205
15.46 -98.6477 0.0 -2.83332 -2.83332
15.47 -101.802 0.0 -2.49655 -2.49655
15.48 -104.149 0.0 -1.68371 -1.68371
15.49 -105.316 0.0 -0.442392 -0.442392
15.5 -104.883 0.0 1.14195 1.14195
15.51 -102.409 0.0 2.94962 2.94962
15.52 -97.4535 0.0 4.84253 4.84253
15.53 -89.6149 0.0 6.6649 6.6649
15.54 -78.5616 0.0 8.27159 8.27159
15.55 -64.0698 0.0 9.52675 9.52675
15.56 -46.0558 0.0 10.3228 10.3228
15.57 -24.6037 0.0 10.5857 10.5857
15.58 0.0161796 0.0 10.2958 10.2958
15.59 27.3387 0.0 9.47429 9.47429
15.6 56.7088 0.0 8.19221 8.19221
15.61 87.299 0.0 6.56202 6.56202
15.62 118.141 0.0 4.73735 4.73735
15.63 148.167 0.0 2.88708 2.88708
15.64 176.266 0.0 1.1925 1.1925
15.65 201.338 0.0 -0.175906 -0.175906
15.66 222.361 0.0 -1.05834 -1.05834
15.67 238.449 0.0 -1.33793 -1.33793
15.68 248.904 0.0 -0.941927 -0.941927
15.69 253.264 0.0 0.15722 0.15722
15.7 251.331 0.0 1.93035 1.93035
15.71 243.186 0.0 4.29811 4.29811
15.72 229.187 0.0 7.13997 7.13997
15.73 209.947 0.0 10.2986 10.2986
15.74 186.3 0.0 13.5893 13.5893
15.75 159.246 0.0 16.8284 16.8284
15.76 129.896 0.0 19.8341 19.8341
15.77 99.4045 0.0 22.4415 22.4415
15.78 68.9018 0.0 24.5222 24.5222
15.79 39.4322 0.0 25.9778 25.9778
15.8 11.8995 0.0 26.7605 26.7605
15.81 -12.976 0.0 26.864 26.864
15.82 -34.6846 0.0 26.3276 26.3276
15.83 -52.94 0.0 25.217 25.217
15.84 -67.6747 0.0 23.6367 23.6367
15.85 -79.0216 0.0 21.7016 21.7016
15.86 -87.2825 0.0 19.5395 19.5395
15.87 -92.8878 0.0 17.2718 17.2718
15.88 -96.3507 0.0 15.0117 15.0117
15.89 -98.2203 0.0 12.8543 12.8543
15.9 -99.0372 0.0 10.8732 10.8732
15.91 -99.2949 0.0 9.12086 9.12086
15.92 -99.41 0.0 7.62504 7.62504
15.93 -99.7033 0.0 6.3983 6.3983
15.94 -100.39 0.0 5.4352 5.4352
15.95 -101.583 0.0 4.72195 4.72195
15.96 -103.301 0.0 4.24284 4.24284
15.97 -105.487 0.0 3.98224 3.98224
15.98 -108.031 0.0 3.92763 3.92763
15.99 -110.787 0.0 4.07556 4.07556
16 -113.598 0.0 4.43112 4.43112
16.01 -116.312 0.0 5.00229 5.00229
16.02 -118.791 0.0 5.80381 5.80381
16.03 -120.915 0.0 6.84956 6.84956
16.04 -122.582 0.0 8.14862 8.14862
16.05 -123.7 0.0 9.70472 9.70472
16.06 -124.175 0.0 11.5077 11.5077
16.07 -123.897 0.0 13.5363 13.5363
16.08 -122.73 0.0 15.7548 15.7548
16.09 -120.496 0.0 18.1122 18.1122
16.1 -116.976 0.0 20.5494 20.5494
16.11 -111.907 0.0 22.9981 22.9981
16.12 -104.99 0.0 25.3885 25.3885
16.13 -95.9046 0.0 27.6526 27.6526
16.14 -84.3339 0.0 29.7349 29.7349
16.15 -69.9857 0.0 31.5887 31.5887
16.16 -52.624 0.0 33.189 33.189
16.17 -32.0969 0.0 34.5269 34.5269
16.18 -8.36296 0.0 35.619 35.619
16.19 18.4875 0.0 36.5005 36.5005
16.2 48.2185 0.0 37.2245 37.2245
16.21 80.4436 0.0 37.8534 37.8534
16.22 114.631 0.0 38.4765 38.4765
16.23 150.116 0.0 39.1687 39.1687
16.24 186.13 0.0 40.0095 40.0095
16.25 221.828 0.0 41.0702 41.0702
16.26 256.325 0.0 42.4051 42.4051
16.27 288.741 0.0 44.0528 44.0528
16.28 318.24 0.0 46.0326 46.0326
16.29 344.069 0.0 48.3372 48.3372
16.3 365.59 0.0 50.9396 50.9396
16.31 382.314 0.0 53.7977 53.7977
16.32 393.915 0.0 56.8433 56.8433
16.33 400.241 0.0 59.9977 59.9977
16.34 401.321 0.0 63.1728 63.1728
16.35 397.352 0.0 66.2781 66.2781
16.36 388.686 0.0 69.2246 69.2246
16.37 375.812 0.0 71.9309 71.9309
16.38 359.325 0.0 74.3293 74.3293
16.39 339.9 0.0 76.362 76.362
16.4 318.263 0.0 77.9937 77.9937
16.41 295.16 0.0 79.2082 79.2082
16.42 271.326 0.0 80.0129 80.0129
16.43 247.465 0.0 80.4316 80.4316
16.44 224.224 0.0 80.5048 80.5048
16.45 202.175 0.0 80.2892 80.2892
16.46 181.8 0.0 79.8531 79.8531
16.47 163.482 0.0 79.2629 79.2629
16.48 147.497 0.0 78.5911 78.5911
16.49 134.009 0.0 77.9061 77.9061
16.5 123.071 0.0 77.2667 77.2667
16.51 114.629 0.0 76.7178 76.7178
16.52 108.525 0.0 76.2893 76.2893
16.53 104.506 0.0 75.9919 75.9919
16.54 102.239 0.0 75.8261 75.8261
16.55 101.321 0.0 75.7704 75.7704
16.56 101.296 0.0 75.7935 75.7935
16.57 101.679 0.0 75.8575 75.8575
16.58 101.97 0.0 75.9179 75.9179
16.59 101.679 0.0 75.9364 75.9364
16.6 100.347 0.0 75.8753 75.8753
16.61 97.569 0.0 75.714 75.714
16.62 93.0128 0.0 75.4432 75.4432
16.63 86.4349 0.0 75.0741 75.0741
16.64 77.6942 0.0 74.6278 74.6278
16.65 66.7609 0.0 74.1471 74.1471
16.66 53.7186 0.0 73.6844 73.6844
16.67 38.7624 0.0 73.2966 73.2966
16.68 22.1897 0.0 73.0463 73.0463
16.69 4.38641 0.0 72.9886 72.9886
16.7 -14.1919 0.0 73.1649 73.1649
16.71 -33.0431 0.0 73.6061 73.6061
16.72 -51.644 0.0 74.307 74.307
16.73 -69.4772 0.0 75.2532 75.2532
16.74 -86.0578 0.0 76.3998 76.3998
16.75 -100.959 0.0 77.6828 77.6828
16.76 -113.833 0.0 79.0186 79.0186
16.77 -124.429 0.0 80.3191 80.3191
16.78 -132.608 0.0 81.484 81.484
16.79 -138.346 0.0 82.4296 82.4296
16.8 -141.735 0.0 83.0801 83.0801
16.81 -142.981 0.0 83.3803 83.3803
16.82 -142.389 0.0 83.3069 83.3069
16.83 -140.347 0.0 82.8608 82.8608
16.84 -137.308 0.0 82.0781 82.0781
16.85 -133.766 0.0 81.0184 81.0184
16.86 -130.232 0.0 79.764 79.764
16.87 -127.207 0.0 78.4132 78.4132
16.88 -125.162 0.0 77.0673 77.0673
16.89 -124.514 0.0 75.8234 75.8234
16.9 -125.609 0.0 74.767 74.767
16.91 -128.706 0.0 73.9598 73.9598
16.92 -133.969 0.0 73.4358 73.4358
16.93 -141.461 0.0 73.1988 73.1988
16.94 -151.144 0.0 73.2217 73.2217
16.95 -162.882 0.0 73.4517 73.4517
16.96 -176.45 0.0 73.8136 73.8136
16.97 -191.544 0.0 74.2151 74.2151
16.98 -207.798 0.0 74.5658 74.5658
16.99 -224.794 0.0 74.7822 74.7822
17 -242.085 0.0 74.7928 74.7928
17.01 -259.205 0.0 74.5531 74.5531
17.02 -275.691 0.0 74.0469 74.0469
17.03 -291.093 0.0 73.2866 73.2866
17.04 -304.989 0.0 72.3178 72.3178
17.05 -316.997 0.0 71.211 71.211
17.06 -326.784 0.0 70.0455 70.0455
17.07 -334.07 0.0 68.9154 68.9154
17.08 -338.641 0.0 67.9141 67.9141
17.09 -340.345 0.0 67.1171 67.1171
17.1 -339.1 0.0 66.5778 66.5778
17.11 -334.893 0.0 66.3238 66.3238
17.12 -327.782 0.0 66.3459 66.3459
17.13 -317.895 0.0 66.6026 66.6026
17.14 -305.426 0.0 67.0272 67.0272
17.15 -290.636 0.0 67.5243 67.5243
17.16 -273.844 0.0 67.9857 67.9857
17.17 -255.419 0.0 68.3034 68.3034
17.18 -235.777 0.0 68.3727 68.3727
17.19 -215.359 0.0 68.1111 68.1111
17.2 -194.626 0.0 67.4638 67.4638
17.21 -174.034 0.0 66.4051 66.4051
17.22 -154.021 0.0 64.9577 64.9577
17.23 -134.982 0.0 63.1665 63.1665
17.24 -117.251 0.0 61.1102 61.1102
17.25 -101.084 0.0 58.8905 58.8905
17.26 -86.6392 0.0 56.6172 56.6172
17.27 -73.9643 0.0 54.4053 54.4053
17.28 -62.9924 0.0 52.3504 52.3504
17.29 -53.5393 0.0 50.5323 50.5323
17.3 -45.3107 0.0 48.9957 48.9957
17.31 -37.9159 0.0 47.7549 47.7549
17.32 -30.8897 0.0 46.7887 46.7887
17.33 -23.7201 0.0 46.0401 46.0401
17.34 -15.881 0.0 45.43 45.43
17.35 -6.86802 0.0 44.863 44.863
17.36 3.76423 0.0 44.2388 44.2388
17.37 16.3677 0.0 43.4623 43.4623
17.38 31.1702 0.0 42.4558 42.4558
17.39 48.251 0.0 41.173 41.173
17.4 67.5264 0.0 39.5966 39.5966
17.41 88.7442 0.0 37.7368 37.7368
17.42 111.49 0.0 35.6442 35.6442
17.43 135.203 0.0 33.3918 33.3918
17.44 159.206 0.0 31.0689 31.0689
17.45 182.737 0.0 28.7689 28.7689
17.46 204.993 0.0 26.5808 26.5808
17.47 225.175 0.0 24.5835 24.5835
17.48 242.53 0.0 22.8183 22.8183
17.49 256.398 0.0 21.2975 21.2975
17.5 266.244 0.0 20.0004 20.0004
17.51 271.688 0.0 18.8666 18.8666
17.52 272.525 0.0 17.8119 17.8119
17.53 268.727 0.0 16.7289 16.7289
17.54 260.443 0.0 15.5066 15.5066
17.55 247.984 0.0 14.0438 14.0438
17.56 231.797 0.0 12.2473 12.2473
17.57 212.435 0.0 10.065 10.065
17.58 190.524 0.0 7.48183 7.48183
17.59 166.724 0.0 4.5291 4.5291
17.6 141.692 0.0 1.28288 1.28288
17.61 116.053 0.0 -2.14374 -2.14374
17.62 90.3686 0.0 -5.60458 -5.60458
17.63 65.1213 0.0 -8.93325 -8.93325
17.64 40.6988 0.0 -11.9808 -11.9808
17.65 17.3909 0.0 -14.5959 -14.5959
17.66 -4.60829 0.0 -16.6657 -16.6657
17.67 -25.1917 0.0 -18.1243 -18.1243
17.68 -44.326 0.0 -18.961 -18.961
17.69 -62.035 0.0 -19.225 -19.225
17.7 -78.3822 0.0 -19.0228 -19.0228
17.71 -93.4535 0.0 -18.5115 -18.5115
17.72 -107.341 0.0 -17.8958 -17.8958
17.73 -120.131 0.0 -17.3892 -17.3892
17.74 -131.891 0.0 -17.2189 -17.2189
17.75 -142.667 0.0 -17.5875 -17.5875
17.76 -152.473 0.0 -18.6639 -18.6639
17.77 -161.297 0.0 -20.5651 -20.5651
17.78 -169.093 0.0 -23.3425 -23.3425
17.79 -175.79 0.0 -26.9744 -26.9744
17.8 -181.284 0.0 -31.3696 -31.3696
17.81 -185.452 0.0 -36.3728 -36.3728
17.82 -188.144 0.0 -41.7762 -41.7762
17.83 -189.19 0.0 -47.3349 -47.3349
17.84 -188.405 0.0 -52.7912 -52.7912
17.85 -185.59 0.0 -57.8903 -57.8903
17.86 -180.541 0.0 -62.4054 -62.4054
17.87 -173.057 0.0 -66.157 -66.157
17.88 -162.953 0.0 -69.0239 -69.0239
17.89 -150.072 0.0 -70.9475 -70.9475
17.9 -134.304 0.0 -71.9459 -71.9459
17.91 -115.6 0.0 -72.0975 -72.0975
17.92 -93.9955 0.0 -71.5425 -71.5425
17.93 -69.6215 0.0 -70.4605 -70.4605
17.94 -42.7224 0.0 -69.0576 -69.0576
17.95 -13.6631 0.0 -67.5449 -67.5449
17.96 17.0683 0.0 -66.1283 -66.1283
17.97 48.8653 0.0 -64.9593 -64.9593
17.98 81.0166 0.0 -64.1716 -64.1716
17.99 112.728 0.0 -63.8342 -63.8342
18 143.153 0.0 -63.964 -63.964
18.01 171.428 0.0 -64.5197 -64.5197
18.02 196.714 0.0 -65.4201 -65.4201
18.03 218.242 0.0 -66.5392 -66.5392
18.04 235.353 0.0 -67.7344 -67.7344
18.05 247.539 0.0 -68.8573 -68.8573
18.06 254.475 0.0 -69.7665 -69.7665
18.07 256.039 0.0 -70.3472 -70.3472
18.08 252.331 0.0 -70.5183 -70.5183
18.09 243.666 0.0 -70.2418 -70.2418
18.1 230.561 0.0 -69.5255 -69.5255
18.11 213.71 0.0 -68.4172 -68.4172
18.12 193.949 0.0 -67.0049 -67.0049
18.13 172.204 0.0 -65.3997 -65.3997
18.14 149.443 0.0 -63.7395 -63.7395
18.15 126.62 0.0 -62.1557 -62.1557
18.16 104.622 0.0 -60.7698 -60.7698
18.17 84.2186 0.0 -59.6846 -59.6846
18.18 66.0218 0.0 -58.9738 -58.9738
18.19 50.4534 0.0 -58.6734 -58.6734
18.2 37.7269 0.0 -58.7799 -58.7799
18.21 27.842 0.0 -59.258 -59.258
18.22 20.5923 0.0 -60.0443 -60.0443
18.23 15.5861 0.0 -61.0481 -61.0481
18.24 12.2785 0.0 -62.1695 -62.1695
18.25 10.0123 0.0 -63.3083 -63.3083
18.26 8.0657 0.0 -64.3707 -64.3707
18.27 5.70265 0.0 -65.2846 -65.2846
18.28 2.22359 0.0 -66.0006 -66.0006
18.29 -2.98695 0.0 -66.4981 -66.4981
18.3 -10.4186 0.0 -66.7824 -66.7824
18.31 -20.4015 0.0 -66.8915 -66.8915
18.32 -33.083 0.0 -66.88 -66.88
18.33 -48.4148 0.0 -66.8172 -66.8172
18.34 -66.1528 0.0 -66.7742 -66.7742
18.35 -85.867 0.0 -66.82 -66.82
18.36 -106.963 0.0 -67.0097 -67.0097
18.37 -128.713 0.0 -67.3785 -67.3785
18.38 -150.293 0.0 -67.9308 -67.9308
18.39 -170.825 0.0 -68.6594 -68.6594
18.4 -189.422 0.0 -69.5142 -69.5142
18.41 -205.237 0.0 -70.4301 -70.4301
18.42 -217.503 0.0 -71.3227 -71.3227
18.43 -225.575 0.0 -72.1034 -72.1034
18.44 -228.958 0.0 -72.6795 -72.6795
18.45 -227.336 0.0 -72.969 -72.969
18.46 -220.587 0.0 -72.9094 -72.9094
18.47 -208.784 0.0 -72.4591 -72.4591
18.48 -192.196 0.0 -71.603 -71.603
18.49 -171.27 0.0 -70.3627 -70.3627
18.5 -146.611 0.0 -68.7797 -68.7797
18.51 -118.95 0.0 -66.9256 -66.9256
18.52 -89.1114 0.0 -64.8896 -64.8896
18.53 -57.9718 0.0 -62.7692 -62.7692
18.54 -26.4239 0.0 -60.6631 -60.6631
18.55 4.66392 0.0 -58.6669 -58.6669
18.56 34.4824 0.0 -56.8444 -56.8444
18.57 62.3114 0.0 -55.2514 -55.2514
18.58 87.5445 0.0 -53.9115 -53.9115
18.59 109.705 0.0 -52.8155 -52.8155
18.6 128.458 0.0 -51.9298 -51.9298
18.61 143.607 0.0 -51.1917 -51.1917
18.62 155.094 0.0 -50.5198 -50.5198
18.63 162.986 0.0 -49.8254 -49.8254
18.64 167.462 0.0 -49.0102 -49.0102
18.65 168.79 0.0 -47.9885 -47.9885
18.66 167.312 0.0 -46.691 -46.691
18.67 163.419 0.0 -45.0661 -45.0661
18.68 157.536 0.0 -43.0964 -43.0964
18.69 150.104 0.0 -40.7912 -40.7912
18.7 141.564 0.0 -38.1926 -38.1926
18.71 132.345 0.0 -35.3691 -35.3691
18.72 122.86 0.0 -32.4158 -32.4158
18.73 113.492 0.0 -29.4379 -29.4379
18.74 104.594 0.0 -26.5519 -26.5519
18.75 96.4815 0.0 -23.8715 -23.8715
18.76 89.4294 0.0 -21.4984 -21.4984
18.77 83.666 0.0 -19.519 -19.519
18.78 79.3686 0.0 -17.9946 -17.9946
18.79 76.6575 0.0 -16.9595 -16.9595
18.8 75.5904 0.0 -16.4204 -16.4204
18.81 76.158 0.0 -16.355 -16.355
18.82 78.2809 0.0 -16.7219 -16.7219
18.83 81.81 0.0 -17.458 -17.458
18.84 86.5301 0.0 -18.4881 -18.4881
18.85 92.1684 0.0 -19.7374 -19.7374
18.86 98.4078 0.0 -21.1308 -21.1308
18.87 104.905 0.0 -22.5976 -22.5976
18.88 111.311 0.0 -24.0857 -24.0857
18.89 117.298 0.0 -25.5517 -25.5517
18.9 122.583 0.0 -26.9696 -26.9696
18.91 126.952 0.0 -28.3302 -28.3302
18.92 130.283 0.0 -29.6295 -29.6295
18.93 132.559 0.0 -30.8738 -30.8738
18.94 133.873 0.0 -32.0707 -32.0707
18.95 134.43 0.0 -33.226 -33.226
18.96 134.533 0.0 -34.3364 -34.3364
18.97 134.562 0.0 -35.3957 -35.3957
18.98 134.938 0.0 -36.3809 -36.3809
18.99 136.092 0.0 -37.2671 -37.2671
19 138.419 0.0 -38.0189 -38.0189
19.01 142.234 0.0 -38.6023 -38.6023
19.02 147.736 0.0 -38.9838 -38.9838
19.03 154.969 0.0 -39.1368 -39.1368
19.04 163.804 0.0 -39.0516 -39.0516
19.05 173.925 0.0 -38.7316 -38.7316
19.06 184.835 0.0 -38.1966 -38.1966
19.07 195.875 0.0 -37.4846 -37.4846
19.08 206.258 0.0 -36.6522 -36.6522
19.09 215.119 0.0 -35.7645 -35.7645
19.1 221.565 0.0 -34.8895 -34.8895
19.11 224.748 0.0 -34.0974 -34.0974
19.12 223.92 0.0 -33.4427 -33.4427
19.13 218.495 0.0 -32.9668 -32.9668
19.14 208.102 0.0 -32.6873 -32.6873
19.15 192.622 0.0 -32.5974 -32.5974
19.16 172.207 0.0 -32.6621 -32.6621
19.17 147.283 0.0 -32.8254 -32.8254
19.18 118.536 0.0 -33.0087 -33.0087
19.19 86.8705 0.0 -33.1275 -33.1275
19.2 53.3645 0.0 -33.0975 -33.0975
19.21 19.2003 0.0 -32.8343 -32.8343
19.22 -14.406 0.0 -32.298 -32.298
19.23 -46.2802 0.0 -31.4578 -31.4578
19.24 -75.3621 0.0 -30.3269 -30.3269
19.25 -100.77 0.0 -28.9588 -28.9588
19.26 -121.853 0.0 -27.4416 -27.4416
19.27 -138.226 0.0 -25.9026 -25.9026
19.28 -149.787 0.0 -24.4872 -24.4872
19.29 -156.712 0.0 -23.3588 -23.3588
19.3 -159.439 0.0 -22.6704 -22.6704
19.31 -158.622 0.0 -22.5612 -22.5612
19.32 -155.085 0.0 -23.1322 -23.1322
19.33 -149.755 0.0 -24.4386 -24.4386
19.34 -143.599 0.0 -26.4789 -26.4789
19.35 -137.551 0.0 -29.1935 -29.1935
19.36 -132.455 0.0 -32.458 -32.458
19.37 -129.005 0.0 -36.1021 -36.1021
19.38 -127.707 0.0 -39.9066 -39.9066
19.39 -128.851 0.0 -43.6368 -43.6368
19.4 -132.496 0.0 -47.0458 -47.0458
19.41 -138.477 0.0 -49.9063 -49.9063
19.42 -146.42 0.0 -52.0237 -52.0237
19.43 -155.778 0.0 -53.2566 -53.2566
19.44 -165.868 0.0 -53.5297 -53.5297
19.45 -175.92 0.0 -52.8426 -52.8426
19.46 -185.13 0.0 -51.2646 -51.2646
19.47 -192.711 0.0 -48.9412 -48.9412
19.48 -197.939 0.0 -46.0655 -46.0655
19.49 -200.203 0.0 -42.8775 -42.8775
19.5 -199.029 0.0 -39.6296 -39.6296
19.51 -194.119 0.0 -36.5743 -36.5743
19.52 -185.353 0.0 -33.936 -33.936
19.53 -172.804 0.0 -31.8936 -31.8936
19.54 -156.729 0.0 -30.564 -30.564
19.55 -137.552 0.0 -29.9946 -29.9946
19.56 -115.847 0.0 -30.1507 -30.1507
19.57 -92.3042 0.0 -30.9338 -30.9338
19.58 -67.6972 0.0 -32.1828 -32.1828
19.59 -42.8472 0.0 -33.6958 -33.6958
19.6 -18.5835 0.0 -35.2425 -35.2425
19.61 4.29472 0.0 -36.5917 -36.5917
19.62 25.0532 0.0 -37.5352 -37.5352
19.63 43.0549 0.0 -37.9059 -37.9059
19.64 57.7866 0.0 -37.5826 -37.5826
19.65 68.8786 0.0 -36.5216 -36.5216
19.66 76.1177 0.0 -34.7417 -34.7417
19.67 79.4517 0.0 -32.3287 -32.3287
19.68 78.9859 0.0 -29.4269 -29.4269
19.69 74.9713 0.0 -26.2183 -26.2183
19.7 67.7853 0.0 -22.9113 -22.9113
19.71 57.9058 0.0 -19.7138 -19.7138
19.72 45.8805 0.0 -16.8185 -16.8185
19.73 32.2928 0.0 -14.3858 -14.3858
19.74 17.7265 0.0 -12.5195 -12.5195
19.75 2.7316 0.0 -11.2706 -11.2706
19.76 -12.2067 0.0 -10.6283 -10.6283
19.77 -26.693 0.0 -10.527 -10.527
19.78 -40.4405 0.0 -10.8515 -10.8515
19.79 -53.2799 0.0 -11.4531 -11.4531
19.8 -65.1607 0.0 -12.1643 -12.1643
19.81 -76.1411 0.0 -12.8239 -12.8239
19.82 -86.3714 0.0 -13.2836 -13.2836
19.83 -96.0682 0.0 -13.4288 -13.4288
19.84 -105.485 0.0 -13.1913 -13.1913
19.85 -114.877 0.0 -12.5499 -12.5499
19.86 -124.471 0.0 -11.5377 -11.5377
19.87 -134.432 0.0 -10.2299 -10.2299
19.88 -144.838 0.0 -8.74213 -8.74213
19.89 -155.663 0.0 -7.2133 -7.2133
19.9 -166.768 0.0 -5.79133 -5.79133
19.91 -177.903 0.0 -4.61636 -4.61636
19.92 -188.718 0.0 -3.80873 -3.80873
19.93 -198.788 0.0 -3.4553 -3.4553
19.94 -207.636 0.0 -3.60069 -3.60069
19.95 -214.777 0.0 -4.24763 -4.24763
19.96 -219.751 0.0 -5.34931 -5.34931
19.97 -222.161 0.0 -6.82667 -6.82667
19.98 -221.715 0.0 -8.57089 -8.57089
19.99 -218.248 0.0 -10.4479 -10.4479
20 -211.748 0.0 -12.3274 -12.3274
20.01 -202.363 0.0 -14.0834 -14.0834
20.02 -190.403 0.0 -15.6059 -15.6059
20.03 -176.328 0.0 -16.8184 -16.8184
20.04 -160.72 0.0 -17.6728 -17.6728
20.05 -144.258 0.0 -18.1584 -18.1584
20.06 -127.671 0.0 -18.2905 -18.2905
20.07 -111.699 0.0 -18.1148 -18.1148
20.08 -97.0492 0.0 -17.6938 -17.6938
20.09 -84.3484 0.0 -17.0996 -17.0996
20.1 -74.1089 0.0 -16.4011 -16.4011
20.11 -66.6967 0.0 -15.6563 -15.6563
20.12 -62.3103 0.0 -14.9087 -14.9087
20.13 -60.9703 0.0 -14.1777 -14.1777
20.14 -62.5198 0.0 -13.4632 -13.4632
20.15 -66.6354 0.0 -12.7426 -12.7426
20.16 -72.8485 0.0 -11.9805 -11.9805
20.17 -80.5743 0.0 -11.1297 -11.1297
20.18 -89.1465 0.0 -10.1455 -10.1455
20.19 -97.8565 0.0 -8.98953 -8.98953
20.2 -105.993 0.0 -7.63948 -7.63948
20.21 -112.878 0.0 -6.09254 -6.09254
20.22 -117.908 0.0 -4.37165 -4.37165
20.23 -120.576 0.0 -2.52228 -2.52228
20.24 -120.496 0.0 -0.609978 -0.609978
20.25 -117.421 0.0 1.28228 1.28228
20.26 -111.247 0.0 3.06554 3.06554
20.27 -102.008 0.0 4.65028 4.65028
20.28 -89.8754 0.0 5.95937 5.95937
20.29 -75.1335 0.0 6.93351 6.93351
20.3 -58.1644 0.0 7.53236 7.53236
20.31 -39.4208 0.0 7.75885 7.75885
20.32 -19.4002 0.0 7.63516 7.63516
20.33 1.38402 0.0 7.21698 7.21698
20.34 22.4285 0.0 6.58447 6.58447
20.35 43.2657 0.0 5.83333 5.83333
20.36 63.4848 0.0 5.07119 5.07119
20.37 82.7498 0.0 4.40222 4.40222
20.38 100.811 0.0 3.91978 3.91978
20.39 117.513 0.0 3.70561 3.70561
20.4 132.795 0.0 3.81066 3.81066
20.41 146.686 0.0 4.25667 4.25667
20.42 159.296 0.0 5.03713 5.03713
20.43 170.799 0.0 6.11502 6.11502
20.44 181.417 0.0 7.43159 7.43159
20.45 191.398 0.0 8.91108 8.91108
20.46 200.989 0.0 10.4602 10.4602
20.47 210.416 0.0 11.997 11.997
20.48 219.86 0.0 13.4356 13.4356
20.49 229.437 0.0 14.7107 14.7107
20.5 239.18 0.0 15.7727 15.7727
20.51 249.03 0.0 16.6041 16.6041
20.52 258.829 0.0 17.2031 17.2031
20.53 268.323 0.0 17.6017 17.6017
20.54 277.172 0.0 17.8478 17.8478
20.55 284.963 0.0 18.0059 18.0059
20.56 291.234 0.0 18.1607 18.1607
20.57 295.502 0.0 18.3881 18.3881
20.58 297.291 0.0 18.7695 18.7695
20.59 296.171 0.0 19.3715 19.3715
20.6 291.781 0.0 20.2489 20.2489
20.61 283.87 0.0 21.434 21.434
20.62 272.314 0.0 22.9354 22.9354
20.63 257.137 0.0 24.7444 24.7444
20.64 238.522 0.0 26.8151 26.8151
20.65 216.811 0.0 29.0917 29.0917
20.66 192.495 0.0 31.4927 31.4927
20.67 166.194 0.0 33.9291 33.9291
20.68 138.627 0.0 36.2977 36.2977
20.69 110.58 0.0 38.4922 38.4922
20.7 82.8574 0.0 40.4146 40.4146
20.71 56.2431 0.0 41.9779 41.9779
20.72 31.452 0.0 43.096 43.096
20.73 9.08966 0.0 43.7183 43.7183
20.74 -10.3838 0.0 43.8128 43.8128
20.75 -26.6806 0.0 43.3776 43.3776
20.76 -39.701 0.0 42.44 42.44
20.77 -49.5379 0.0 41.0499 41.0499
20.78 -56.4672 0.0 39.2922 39.2922
20.79 -60.9268 0.0 37.2678 37.2678
20.8 -63.4835 0.0 35.1015 35.1015
20.81 -64.7908 0.0 32.9198 32.9198
20.82 -65.5407 0.0 30.8587 30.8587
20.83 -66.4118 0.0 29.0428 29.0428
20.84 -68.0184 0.0 27.5804 27.5804
20.85 -70.863 0.0 26.557 26.557
20.86 -75.2978 0.0 26.0248 26.0248
20.87 -81.4954 0.0 26.0014 26.0014
20.88 -89.4333 0.0 26.4643 26.4643
20.89 -98.8925 0.0 27.3525 27.3525
20.9 -109.471 0.0 28.5728 28.5728
20.91 -120.609 0.0 30.0044 30.0044
20.92 -131.633 0.0 31.5099 31.5099
20.93 -141.797 0.0 32.944 32.944
20.94 -150.344 0.0 34.1719 34.1719
20.95 -156.559 0.0 35.0716 35.0716
20.96 -159.824 0.0 35.5569 35.5569
20.97 -159.669 0.0 35.575 35.575
20.98 -155.808 0.0 35.1221 35.1221
20.99 -148.168 0.0 34.2355 34.2355
21 -136.897 0.0 32.9996 32.9996
21.01 -122.364 0.0 31.5323 31.5323
21.02 -105.14 0.0 29.978 29.978
21.03 -85.9595 0.0 28.4935 28.4935
21.04 -65.6806 0.0 27.2356 27.2356
21.05 -45.2288 0.0 26.3368 26.3368
21.06 -25.5393 0.0 25.9173 25.9173
21.07 -7.49835 0.0 26.0383 26.0383
21.08 8.11202 0.0 26.722 26.722
21.09 20.6614 0.0 27.9366 27.9366
21.1 29.7076 0.0 29.6054 29.6054
21.11 35.0201 0.0 31.6089 31.6089
21.12 36.5881 0.0 33.8009 33.8009
21.13 34.615 0.0 36.017 36.017
21.14 29.4972 0.0 38.0968 38.0968
21.15 21.7914 0.0 39.8946 39.8946
21.16 12.1724 0.0 41.2976 41.2976
21.17 1.38426 0.0 42.2367 42.2367
21.18 -9.81039 0.0 42.6924 42.6924
21.19 -20.6802 0.0 42.6952 42.6952
21.2 -30.5698 0.0 42.3268 42.3268
21.21 -38.9361 0.0 41.7051 41.7051
21.22 -45.375 0.0 40.973 40.973
21.23 -49.6358 0.0 40.2878 40.2878
21.24 -51.6234 0.0 39.7974 39.7974
21.25 -51.3886 0.0 39.6286 39.6286
21.26 -49.1088 0.0 39.8678 39.8678
21.27 -45.0598 0.0 40.5538 40.5538
21.28 -39.5822 0.0 41.6732 41.6732
21.29 -33.0462 0.0 43.1602 43.1602
21.3 -25.8155 0.0 44.8945 44.8945
21.31 -18.2167 0.0 46.7297 46.7297
21.32 -10.5126 0.0 48.4906 48.4906
21.33 -2.88475 0.0 50.0008 50.0008
21.34 4.57562 0.0 51.0994 51.0994
21.35 11.8678 0.0 51.6552 51.6552
21.36 19.0727 0.0 51.5833 51.5833
21.37 26.3365 0.0 50.8555 50.8555
21.38 33.8485 0.0 49.4995 49.4995
21.39 41.8153 0.0 47.6067 47.6067
21.4 50.4337 0.0 45.3093 45.3093
21.41 59.8649 0.0 42.7791 42.7791
21.42 70.2115 0.0 40.2055 40.2055
21.43 81.4999 0.0 37.7831 37.7831
21.44 93.6698 0.0 35.6822 35.6822
21.45 106.57 0.0 34.0393 34.0393
21.46 119.962 0.0 32.9475 32.9475
21.47 133.531 0.0 32.4428 32.4428
21.48 146.907 0.0 32.5054 32.5054
21.49 159.679 0.0 33.0569 33.0569
21.5 171.43 0.0 33.9818 33.9818
21.51 181.757 0.0 35.1297 35.1297
21.52 190.301 0.0 36.3402 36.3402
21.53 196.768 0.0 37.4569 37.4569
21.54 200.953 0.0 38.3465 38.3465
21.55 202.749 0.0 38.9113 38.9113
21.56 202.16 0.0 39.0993 39.0993
21.57 199.298 0.0 38.9135 38.9135
21.58 194.382 0.0 38.4003 38.4003
21.59 187.717 0.0 37.6501 37.6501
21.6 179.685 0.0 36.7875 36.7875
21.61 170.714 0.0 35.9536 35.9536
21.62 161.259 0.0 35.2826 35.2826
21.63 151.768 0.0 34.8968 34.8968
21.64 142.657 0.0 34.8798 34.8798
21.65 134.285 0.0 35.2765 35.2765
21.66 126.933 0.0 36.0803 36.0803
21.67 120.783 0.0 37.2328 37.2328
21.68 115.915 0.0 38.6337 38.6337
21.69 112.299 0.0 40.1452 40.1452
21.7 109.8 0.0 41.6123 41.6123
21.71 108.192 0.0 42.874 42.874
21.72 107.177 0.0 43.7864 43.7864
21.73 106.406 0.0 44.2365 44.2365
21.74 105.511 0.0 44.1523 44.1523
21.75 104.134 0.0 43.5159 43.5159
21.76 101.958 0.0 42.3678 42.3678
21.77 98.7342 0.0 40.7948 40.7948
21.78 94.3054 0.0 38.9336 38.9336
21.79 88.6244 0.0 36.9486 36.9486
21.8 81.762 0.0 35.022 35.022
21.81 73.9069 0.0 33.3281 33.3281
21.82 65.3557 0.0 32.0243 32.0243
21.83 56.4945 0.0 31.2285 31.2285
21.84 47.771 0.0 31.016 31.016
21.85 39.6611 0.0 31.4019 31.4019
21.86 32.6304 0.0 32.3516 32.3516
21.87 27.0958 0.0 33.7762 33.7762
21.88 23.3867 0.0 35.5463 35.5463
21.89 21.7122 0.0 37.5068 37.5068
21.9 22.1356 0.0 39.4924 39.4924
21.91 24.5582 0.0 41.3408 41.3408
21.92 28.7144 0.0 42.9176 42.9176
21.93 34.1801 0.0 44.1189 44.1189
21.94 40.3923 0.0 44.8877 44.8877
21.95 46.6803 0.0 45.2127 45.2127
21.96 52.3064 0.0 45.1356 45.1356
21.97 56.5121 0.0 44.7359 44.7359
21.98 58.5689 0.0 44.1261 44.1261
21.99 57.8277 0.0 43.4323 43.4323
22 53.7638 0.0 42.7902 42.7902
22.01 46.0153 0.0 42.3207 42.3207
22.02 34.4101 0.0 42.1229 42.1229
22.03 18.9805 0.0 42.2605 42.2605
22.04 -0.0360866 0.0 42.7601 42.7601
22.05 -22.2101 0.0 43.6111 43.6111
22.06 -46.9462 0.0 44.7562 44.7562
22.07 -73.5207 0.0 46.1157 46.1157
22.08 -101.126 0.0 47.5904 47.5904
22.09 -128.923 0.0 49.0743 49.0743
22.1 -156.09 0.0 50.4647 50.4647
22.11 -181.87 0.0 51.6751 51.6751
22.12 -205.617 0.0 52.6455 52.6455
22.13 -226.826 0.0 53.35 53.35
22.14 -245.152 0.0 53.7819 53.7819
22.15 -260.422 0.0 53.9798 53.9798
22.16 -272.629 0.0 53.9989 53.9989
22.17 -281.916 0.0 53.9149 53.9149
22.18 -288.549 0.0 53.8059 53.8059
22.19 -292.883 0.0 53.748 53.748
22.2 -295.324 0.0 53.8069 53.8069
22.21 -296.288 0.0 54.0185 54.0185
22.22 -296.163 0.0 54.3979 54.3979
22.23 -295.279 0.0 54.9328 54.9328
22.24 -293.879 0.0 55.5841 55.5841
22.25 -292.106 0.0 56.2924 56.2924
22.26 -289.997 0.0 56.9835 56.9835
22.27 -287.482 0.0 57.5849 57.5849
22.28 -284.405 0.0 58.0244 58.0244
22.29 -280.541 0.0 58.2496 58.2496
22.3 -275.618 0.0 58.23 58.23
22.31 -269.354 0.0 57.961 57.961
22.32 -261.48 0.0 57.469 57.469
22.33 -251.77 0.0 56.8067 56.8067
22.34 -240.062 0.0 56.0485 56.0485
22.35 -226.276 0.0 55.2858 55.2858
22.36 -210.424 0.0 54.6094 54.6094
22.37 -192.613 0.0 54.113 54.113
22.38 -173.037 0.0 53.8658 53.8658
22.39 -151.97 0.0 53.9325 53.9325
22.4 -129.748 0.0 54.3325 54.3325
22.41 -106.751 0.0 55.063 55.063
22.42 -83.3832 0.0 56.0882 56.0882
22.43 -60.0504 0.0 57.3454 57.3454
22.44 -37.1437 0.0 58.7507 58.7507
22.45 -15.0234 0.0 60.2064 60.2064
22.46 5.99169 0.0 61.6053 61.6053
22.47 25.6312 0.0 62.8618 62.8618
22.48 43.6751 0.0 63.8809 63.8809
22.49 59.9523 0.0 64.5997 64.5997
22.5 74.335 0.0 64.975 64.975
22.51 86.7315 0.0 64.9895 64.9895
22.52 97.0778 0.0 64.6492 64.6492
22.53 105.329 0.0 63.9833 63.9833
22.54 111.451 0.0 63.041 63.041
22.55 115.417 0.0 61.8758 61.8758
22.56 117.204 0.0 60.5524 60.5524
22.57 116.789 0.0 59.1327 59.1327
22.58 114.16 0.0 57.668 57.668
22.59 109.313 0.0 56.2098 56.2098
22.6 102.266 0.0 54.7852 54.7852
22.61 93.0628 0.0 53.4182 53.4182
22.62 81.7871 0.0 52.1159 52.1159
22.63 68.5678 0.0 50.8802 50.8802
22.64 53.5876 0.0 49.6964 49.6964
22.65 37.0872 0.0 48.5528 48.5528
22.66 19.3675 0.0 47.4355 47.4355
22.67 0.787157 0.0 46.3268 46.3268
22.68 -18.2431 0.0 45.2091 45.2091
22.69 -37.2704 0.0 44.0674 44.0674
22.7 -55.8132 0.0 42.8852 42.8852
22.71 -73.3781 0.0 41.6461 41.6461
22.72 -89.479 0.0 40.324 40.324
22.73 -103.657 0.0 38.8945 38.8945
22.74 -115.504 0.0 37.3293 37.3293
22.75 -124.679 0.0 35.595 35.595
22.76 -130.928 0.0 33.6584 33.6584
22.77 -134.101 0.0 31.4842 31.4842
22.78 -134.159 0.0 29.0466 29.0466
22.79 -131.179 0.0 26.3271 26.3271
22.8 -125.359 0.0 23.3226 23.3226
22.81 -117.003 0.0 20.0468 20.0468
22.82 -106.515 0.0 16.5308 16.5308
22.83 -94.3766 0.0 12.8296 12.8296
22.84 -81.1258 0.0 9.01181 9.01181
22.85 -67.3288 0.0 5.1668 5.1668
22.86 -53.5519 0.0 1.38595 1.38595
22.87 -40.3324 0.0 -2.23058 -2.23058
22.88 -28.1505 0.0 -5.59153 -5.59153
22.89 -17.4049 0.0 -8.61606 -8.61606
22.9 -8.39367 0.0 -11.2453 -11.2453
22.91 -1.30014 0.0 -13.4449 -13.4449
22.92 3.81273 0.0 -15.2097 -15.2097
22.93 7.00121 0.0 -16.5612 -16.5612
22.94 8.43178 0.0 -17.5528 -17.5528
22.95 8.36533 0.0 -18.2533 -18.2533
22.96 7.1356 0.0 -18.7536 -18.7536
22.97 5.12354 0.0 -19.1415 -19.1415
22.98 2.72953 0.0 -19.5135 -19.5135
22.99 0.345554 0.0 -19.9426 -19.9426
23 -1.67053 0.0 -20.4915 -20.4915
23.01 -3.01665 0.0 -21.1934 -21.1934
23.02 -3.46252 0.0 -22.0565 -22.0565
23.03 -2.85879 0.0 -23.0642 -23.0642
23.04 -1.1389 0.0 -24.1761 -24.1761
23.05 1.68641 0.0 -25.3364 -25.3364
23.06 5.54102 0.0 -26.482 -26.482
23.07 10.3007 0.0 -27.5537 -27.5537
23.08 15.8135 0.0 -28.5015 -28.5015
23.09 21.9219 0.0 -29.2969 -29.2969
23.1 28.4839 0.0 -29.9349 -29.9349
23.11 35.3906 0.0 -30.4426 -30.4426
23.12 42.5796 0.0 -30.8716 -30.8716
23.13 50.042 0.0 -31.302 -31.302
23.14 57.8219 0.0 -31.8259 -31.8259
23.15 66.0092 0.0 -32.5452 -32.5452
23.16 74.7259 0.0 -33.5639 -33.5639
23.17 84.1065 0.0 -34.9635 -34.9635
23.18 94.2761 0.0 -36.8061 -36.8061
23.19 105.326 0.0 -39.1189 -39.1189
23.2 117.291 0.0 -41.891 -41.891
23.21 130.131 0.0 -45.0766 -45.0766
23.22 143.715 0.0 -48.5849 -48.5849
23.23 157.818 0.0 -52.2992 -52.2992
23.24 172.121 0.0 -56.0847 -56.0847
23.25 186.219 0.0 -59.7929 -59.7929
23.26 199.643 0.0 -63.2824 -63.2824
23.27 211.884 0.0 -66.4252 -66.4252
23.28 222.42 0.0 -69.1224 -69.1224
23.29 230.753 0.0 -71.3145 -71.3145
23.3 236.435 0.0 -72.9763 -72.9763
23.31 239.107 0.0 -74.1281 -74.1281
23.32 238.515 0.0 -74.8296 -74.8296
23.33 234.53 0.0 -75.1721 -75.1721
23.34 227.161 0.0 -75.2652 -75.2652
23.35 216.549 0.0 -75.2314 -75.2314
23.36 202.962 0.0 -75.1916 -75.1916
23.37 186.772 0.0 -75.2485 -75.2485
23.38 168.436 0.0 -75.4809 -75.4809
23.39 148.465 0.0 -75.9449 -75.9449
23.4 127.391 0.0 -76.6549 -76.6549
23.41 105.738 0.0 -77.592 -77.592
23.42 83.9941 0.0 -78.7091 -78.7091
23.43 62.5882 0.0 -79.9412 -79.9412
23.44 41.8743 0.0 -81.2053 -81.2053
23.45 22.1238 0.0 -82.4218 -82.4218
23.46 3.52494 0.0 -83.5149 -83.5149
23.47 -13.8097 0.0 -84.4393 -84.4393
23.48 -29.8296 0.0 -85.1664 -85.1664
23.49 -44.528 0.0 -85.698 -85.698
23.5 -57.9218 0.0 -86.0652 -86.0652
23.51 -70.0309 0.0 -86.3301 -86.3301
23.52 -80.8601 0.0 -86.5709 -86.5709
23.53 -90.3852 0.0 -86.8778 -86.8778
23.54 -98.5455 0.0 -87.3445 -87.3445
23.55 -105.242 0.0 -88.0493 -88.0493
23.56 -110.343 0.0 -89.0581 -89.0581
23.57 -113.698 0.0 -90.4062 -90.4062
23.58 -115.153 0.0 -92.0968 -92.0968
23.59 -114.575 0.0 -94.0992 -94.0992
23.6 -111.87 0.0 -96.351 -96.351
23.61 -107.009 0.0 -98.764 -98.764
23.62 -100.043 0.0 -101.232 -101.232
23.63 -91.1184 0.0 -103.636 -103.636
23.64 -80.4789 0.0 -105.855 -105.855
23.65 -68.4662 0.0 -107.784 -107.784
23.66 -55.5063 0.0 -109.333 -109.333
23.67 -42.0912 0.0 -110.438 -110.438
23.68 -28.7518 0.0 -111.062 -111.062
23.69 -16.0265 0.0 -111.201 -111.201
23.7 -4.42691 0.0 -110.874 -110.874
23.71 5.59637 0.0 -110.129 -110.129
23.72 13.6854 0.0 -109.019 -109.019
23.73 19.6007 0.0 -107.62 -107.62
23.74 23.2399 0.0 -105.999 -105.999
23.75 24.6461 0.0 -104.225 -104.225
23.76 24.0064 0.0 -102.356 -102.356
23.77 21.6396 0.0 -100.435 -100.435
23.78 17.9738 0.0 -98.4898 -98.4898
23.79 13.5154 0.0 -96.5394 -96.5394
23.8 8.81213 0.0 -94.5901 -94.5901
23.81 4.41211 0.0 -92.6431 -92.6431
23.82 0.82258 0.0 -90.6996 -90.6996
23.83 -1.5288 0.0 -88.7622 -88.7622
23.84 -2.32706 0.0 -86.8419 -86.8419
23.85 -1.39478 0.0 -84.9572 -84.9572
23.86 1.29326 0.0 -83.1373 -83.1373
23.87 5.60693 0.0 -81.4189 -81.4189
23.88 11.2694 0.0 -79.8414 -79.8414
23.89 17.8772 0.0 -78.4412 -78.4412
23.9 24.9303 0.0 -77.2533 -77.2533
23.91 31.8694 0.0 -76.2964 -76.2964
23.92 38.1196 0.0 -75.5736 -75.5736
23.93 43.1341 0.0 -75.0671 -75.0671
23.94 46.4381 0.0 -74.7421 -74.7421
23.95 47.6671 0.0 -74.5391 -74.5391
23.96 46.5981 0.0 -74.3831 -74.3831
23.97 43.1705 0.0 -74.1895 -74.1895
23.98 37.4957 0.0 -73.8697 -73.8697
23.99 29.8544 0.0 -73.3434 -73.3434
24 20.6821 0.0 -72.5401 -72.5401
24.01 10.5425 0.0 -71.4105 -71.4105
24.02 0.092604 0.0 -69.9326 -69.9326
24.03 -9.95928 0.0 -68.1147 -68.1147
24.04 -18.8997 0.0 -65.9953 -65.9953
24.05 -26.0564 0.0 -63.6396 -63.6396
24.06 -30.8421 0.0 -61.1389 -61.1389
24.07 -32.7927 0.0 -58.5923 -58.5923
24.08 -31.5969 0.0 -56.1131 -56.1131
24.09 -27.1162 0.0 -53.8038 -53.8038
24.1 -19.3926 0.0 -51.7564 -51.7564
24.11 -8.64545 0.0 -50.0395 -50.0395
24.12 4.74336 0.0 -48.6934 -48.6934
24.13 20.2546 0.0 -47.7286 -47.7286
24.14 37.2641 0.0 -47.1171 -47.1171
24.15 55.0818 0.0 -46.8058 -46.8058
24.16 72.9923 0.0 -46.7183 -46.7183
24.17 90.2968 0.0 -46.7558 -46.7558
24.18 106.351 0.0 -46.8217 -46.8217
24.19 120.597 0.0 -46.8093 -46.8093
24.2 132.593 0.0 -46.6341 -46.6341
24.21 142.025 0.0 -46.2244 -46.2244
24.22 148.72 0.0 -45.5329 -45.5329
24.23 152.639 0.0 -44.5435 -44.5435
24.24 153.874 0.0 -43.2685 -43.2685
24.25 152.626 0.0 -41.7425 -41.7425
24.26 149.181 0.0 -40.0252 -40.0252
24.27 143.892 0.0 -38.1849 -38.1849
24.28 137.143 0.0 -36.3036 -36.3036
24.29 129.326 0.0 -34.4554 -34.4554
24.3 120.821 0.0 -32.7068 -32.7068
24.31 111.967 0.0 -31.1091 -31.1091
24.32 103.057 0.0 -29.6948 -29.6948
24.33 94.3216 0.0 -28.4696 -28.4696
24.34 85.9304 0.0 -27.4234 -27.4234
24.35 77.9913 0.0 -26.5223 -26.5223
24.36 70.5573 0.0 -25.7173 -25.7173
24.37 63.6359 0.0 -24.9529 -24.9529
24.38 57.2006 0.0 -24.1666 -24.1666
24.39 51.2026 0.0 -23.3036 -23.3036
24.4 45.5822 0.0 -22.3142 -22.3142
24.41 40.2785 0.0 -21.1635 -21.1635
24.42 35.2369 0.0 -19.8319 -19.8319
24.43 30.4135 0.0 -18.3225 -18.3225
24.44 25.7771 0.0 -16.6491 -16.6491
24.45 21.3086 0.0 -14.8476 -14.8476
24.46 16.9978 0.0 -12.9608 -12.9608
24.47 12.84 0.0 -11.044 -11.044
24.48 8.83092 0.0 -9.15592 -9.15592
24.49 4.96275 0.0 -7.35175 -7.35175
24.5 1.2206 0.0 -5.6876 -5.6876
24.51 -2.41937 0.0 -4.20663 -4.20663
24.52 -5.99018 0.0 -2.94382 -2.94382
24.53 -9.53251 0.0 -1.92449 -1.92449
24.54 -13.0917 0.0 -1.16035 -1.16035
24.55 -16.7133 0.0 -0.652661 -0.652661
24.56 -20.4391 0.0 -0.390946 -0.390946
24.57 -24.3014 0.0 -0.358617 -0.358617
24.58 -28.3201 0.0 -0.5299 -0.5299
24.59 -32.4995 0.0 -0.872529 -0.872529
24.6 -36.8272 0.0 -1.34983 -1.34983
24.61 -41.275 0.0 -1.92404 -1.92404
24.62 -45.801 0.0 -2.55196 -2.55196
24.63 -50.3538 0.0 -3.19017 -3.19017
24.64 -54.8767 0.0 -3.79532 -3.79532
24.65 -59.3128 0.0 -4.32722 -4.32722
24.66 -63.6098 0.0 -4.74521 -4.74521
24.67 -67.7233 0.0 -5.01368 -5.01368
24.68 -71.6189 0.0 -5.10307 -5.10307
24.69 -75.272 0.0 -4.99399 -4.99399
24.7 -78.6658 0.0 -4.67422 -4.67422
24.71 -81.7873 0.0 -4.14474 -4.14474
24.72 -84.6218 0.0 -3.41821 -3.41821
24.73 -87.1467 0.0 -2.52127 -2.52127
24.74 -89.3252 0.0 -1.49177 -1.49177
24.75 -91.1009 0.0 -0.37807 -0.37807
24.76 -92.3945 0.0 0.763549 0.763549
24.77 -93.1031 0.0 1.87414 1.87414
24.78 -93.1026 0.0 2.89762 2.89762
24.79 -92.2537 0.0 3.77673 3.77673
24.8 -90.4115 0.0 4.47148 4.47148
24.81 -87.4374 0.0 4.9524 4.9524
24.82 -83.2139 0.0 5.20594 5.20594
24.83 -77.6597 0.0 5.23967 5.23967
24.84 -70.744 0.0 5.07605 5.07605
24.85 -62.5002 0.0 4.75923 4.75923
24.86 -53.0345 0.0 4.34154 4.34154
24.87 -42.5314 0.0 3.89036 3.89036
24.88 -31.2526 0.0 3.4676 3.4676
24.89 -19.5313 0.0 3.14828 3.14828
24.9 -7.7592 0.0 2.9832 2.9832
24.91 3.63055 0.0 3.02045 3.02045
24.92 14.1853 0.0 3.28367 3.28367
24.93 23.4574 0.0 3.78064 3.78064
24.94 31.0289 0.0 4.49809 4.49809
24.95 36.5365 0.0 5.40055 5.40055
24.96 39.6917 0.0 6.4373 6.4373
24.97 40.2978 0.0 7.54423 7.54423
24.98 38.2592 0.0 8.65176 8.65176
24.99 33.585 0.0 9.68497 9.68497
25 26.384 0.0 10.577 10.577
25.01 16.8534 0.0 11.2726 11.2726
25.02 5.26185 0.0 11.7282 11.7282
25.03 -8.07315 0.0 11.9212 11.9212
25.04 -22.8091 0.0 11.8441 11.8441
25.05 -38.6032 0.0 11.5172 11.5172
25.06 -55.1356 0.0 10.9656 10.9656
25.07 -72.1276 0.0 10.2386 10.2386
25.08 -89.3554 0.0 9.39043 9.39043
25.09 -106.656 0.0 8.48329 8.48329
25.1 -123.928 0.0 7.57568 7.57568
25.11 -141.119 0.0 6.72346 6.72346
25.12 -158.22 0.0 5.97478 5.97478
25.13 -175.236 0.0 5.36738 5.36738
25.14 -192.175 0.0 4.91735 4.91735
25.15 -209.019 0.0 4.6384 4.6384
25.16 -225.708 0.0 4.52732 4.52732
25.17 -242.124 0.0 4.56959 4.56959
25.18 -258.079 0.0 4.74404 4.74404
25.19 -273.319 0.0 5.02587 5.02587
25.2 -287.524 0.0 5.3825 5.3825
25.21 -300.323 0.0 5.78513 5.78513
25.22 -311.318 0.0 6.20498 6.20498
25.23 -320.104 0.0 6.61765 6.61765
25.24 -326.299 0.0 7.00236 7.00236
25.25 -329.577 0.0 7.34667 7.34667
25.26 -329.686 0.0 7.63693 7.63693
25.27 -326.478 0.0 7.8682 7.8682
25.28 -319.92 0.0 8.03249 8.03249
25.29 -310.103 0.0 8.13177 8.13177
25.3 -297.236 0.0 8.16113 8.16113
25.31 -281.642 0.0 8.12704 8.12704
25.32 -263.734 0.0 8.03053 8.03053
25.33 -243.99 0.0 7.87896 7.87896
25.34 -222.927 0.0 7.68033 7.68033
25.35 -201.067 0.0 7.44575 7.44575
25.36 -178.904 0.0 7.18867 7.18867
25.37 -156.88 0.0 6.93228 6.93228
25.38 -135.363 0.0 6.69439 6.69439
25.39 -114.629 0.0 6.50829 6.50829
25.4 -94.8564 0.0 6.40144 6.40144
25.41 -76.1264 0.0 6.40343 6.40343
25.42 -58.4323 0.0 6.54129 6.54129
25.43 -41.6931 0.0 6.84215 6.84215
25.44 -25.7733 0.0 7.32731 7.32731
25.45 -10.5037 0.0 8.01174 8.01174
25.46 4.29625 0.0 8.89775 8.89775
25.47 18.7993 0.0 9.98968 9.98968
25.48 33.154 0.0 11.275 11.275
25.49 47.4734 0.0 12.7326 12.7326
25.5 61.8296 0.0 14.3334 14.3334
25.51 76.2533 0.0 16.0437 16.0437
25.52 90.7382 0.0 17.8248 17.8248
25.53 105.249 0.0 19.6335 19.6335
25.54 119.733 0.0 21.4277 21.4277
25.55 134.128 0.0 23.1592 23.1592
25.56 148.372 0.0 24.7943 24.7943
25.57 162.411 0.0 26.2933 26.2933
25.58 176.2 0.0 27.6217 27.6217
25.59 189.704 0.0 28.7534 28.7534
25.6 202.886 0.0 29.6698 29.6698
25.61 215.707 0.0 30.3549 30.3549
25.62 228.108 0.0 30.8012 30.8012
25.63 240.002 0.0 31.0042 31.0042
25.64 251.265 0.0 30.9814 30.9814
25.65 261.728 0.0 30.7427 30.7427
25.66 271.179 0.0 30.3086 30.3086
25.67 279.364 0.0 29.7136 29.7136
25.68 285.999 0.0 28.9946 28.9946
25.69 290.787 0.0 28.1968 28.1968
25.7 293.438 0.0 27.3677 27.3677
25.71 293.695 0.0 26.559 26.559
25.72 291.357 0.0 25.8225 25.8225
25.73 286.303 0.0 25.2044 25.2044
25.74 278.513 0.0 24.7484 24.7484
25.75 268.079 0.0 24.4853 24.4853
25.76 255.211 0.0 24.4324 24.4324
25.77 240.232 0.0 24.595 24.595
25.78 223.566 0.0 24.9616 24.9616
25.79 205.716 0.0 25.5035 25.5035
25.8 187.23 0.0 26.1811 26.1811
25.81 168.675 0.0 26.93 26.93
25.82 150.595 0.0 27.6899 27.6899
25.83 133.479 0.0 28.3934 28.3934
25.84 117.727 0.0 28.972 28.972
25.85 103.631 0.0 29.3676 29.3676
25.86 91.3577 0.0 29.5293 29.5293
25.87 80.9417 0.0 29.4293 29.4293
25.88 72.2962 0.0 29.0548 29.0548
25.89 65.2266 0.0 28.4124 28.4124
25.9 59.4566 0.0 27.5324 27.5324
25.91 54.6586 0.0 26.4614 26.4614
25.92 50.4881 0.0 25.2609 25.2609
25.93 46.6177 0.0 23.9983 23.9983
25.94 42.768 0.0 22.744 22.744
25.95 38.7319 0.0 21.5641 21.5641
25.96 34.3905 0.0 20.5155 20.5155
25.97 29.7198 0.0 19.6362 19.6362
25.98 24.7861 0.0 18.9469 18.9469
25.99 19.7329 0.0 18.4521 18.4521
26 14.7587 0.0 18.1303 18.1303
26.01 10.0901 0.0 17.9489 17.9489
26.02 5.95094 0.0 17.8581 17.8581
26.03 2.53285 0.0 17.8061 17.8061
26.04 -0.0313657 0.0 17.7384 17.7384
26.05 -1.68807 0.0 17.6081 17.6081
26.06 -2.47486 0.0 17.3789 17.3789
26.07 -2.52323 0.0 17.0362 17.0362
26.08 -2.05148 0.0 16.5795 16.5795
26.09 -1.34865 0.0 16.0306 16.0306
26.1 -0.750959 0.0 15.427 15.427
26.11 -0.613244 0.0 14.8212 14.8212
26.12 -1.27797 0.0 14.271 14.271
26.13 -3.04503 0.0 13.837 13.837
26.14 -6.14501 0.0 13.572 13.572
26.15 -10.7186 0.0 13.5166 13.5166
26.16 -16.8038 0.0 13.6908 13.6908
26.17 -24.3323 0.0 14.0913 14.0913
26.18 -33.1344 0.0 14.6954 14.6954
26.19 -42.9532 0.0 15.4522 15.4522
26.2 -53.4647 0.0 16.2977 16.2977
26.21 -64.3035 0.0 17.1525 17.1525
26.22 -75.0895 0.0 17.9305 17.9305
26.23 -85.4557 0.0 18.5527 18.5527
26.24 -95.0717 0.0 18.9517 18.9517
26.25 -103.663 0.0 19.0799 19.0799
26.26 -111.023 0.0 18.9142 18.9142
26.27 -117.02 0.0 18.4618 18.4618
26.28 -121.592 0.0 17.7587 17.7587
26.29 -124.741 0.0 16.8677 16.8677
26.3 -126.518 0.0 15.8761 15.8761
26.31 -127.008 0.0 14.8845 14.8845
26.32 -126.307 0.0 13.998 13.998
26.33 -124.512 0.0 13.3225 13.3225
26.34 -121.699 0.0 12.944 12.944
26.35 -117.92 0.0 12.9331 12.9331
26.36 -113.194 0.0 13.3267 13.3267
26.37 -107.508 0.0 14.1326 14.1326
26.38 -100.825 0.0 15.3249 15.3249
26.39 -93.0948 0.0 16.8468 16.8468
26.4 -84.2661 0.0 18.6151 18.6151
26.41 -74.3023 0.0 20.5283 20.5283
26.42 -63.1966 0.0 22.4766 22.4766
26.43 -50.9843 0.0 24.3453 24.3453
26.44 -37.7525 0.0 26.0355 26.0355
26.45 -23.6446 0.0 27.4646 27.4646
26.46 -8.86024 0.0 28.5662 28.5662
26.47 6.34969 0.0 29.3203 29.3203
26.48 21.6926 0.0 29.7224 29.7224
26.49 36.8476 0.0 29.8014 29.8014
26.5 51.4804 0.0 29.6106 29.6106
26.51 65.2606 0.0 29.2244 29.2244
26.52 77.877 0.0 28.727 28.727
26.53 89.0526 0.0 28.2104 28.2104
26.54 98.5565 0.0 27.7575 27.7575
26.55 106.213 0.0 27.4454 27.4454
26.56 111.905 0.0 27.3361 27.3361
26.57 115.58 0.0 27.4681 27.4681
26.58 117.246 0.0 27.8635 27.8635
26.59 116.968 0.0 28.523 28.523
26.6 114.867 0.0 29.4279 29.4279
26.61 111.111 0.0 30.5485 30.5485
26.62 105.908 0.0 31.8429 31.8429
26.63 99.5054 0.0 33.2706 33.2706
26.64 92.1786 0.0 34.7844 34.7844
26.65 84.2285 0.0 36.3425 36.3425
26.66 75.9753 0.0 37.9117 37.9117
26.67 67.7522 0.0 39.4638 39.4638
26.68 59.8984 0.0 40.9786 40.9786
26.69 52.7506 0.0 42.4424 42.4424
26.7 46.6331 0.0 43.8439 43.8439
26.71 41.8463 0.0 45.1757 45.1757
26.72 38.6537 0.0 46.4263 46.4263
26.73 37.269 0.0 47.588 47.588
26.74 37.8426 0.0 48.6444 48.6444
26.75 40.45 0.0 49.579 49.579
26.76 45.0819 0.0 50.3691 50.3691
26.77 51.639 0.0 50.996 50.996
26.78 59.9303 0.0 51.4397 51.4397
26.79 69.6763 0.0 51.6887 51.6887
26.8 80.5185 0.0 51.7355 51.7355
26.81 92.0331 0.0 51.5879 51.5879
26.82 103.75 0.0 51.2654 51.2654
26.83 115.172 0.0 50.7956 50.7956
26.84 125.804 0.0 50.219 50.219
26.85 135.17 0.0 49.5873 49.5873
26.86 142.839 0.0 48.9562 48.9562
26.87 148.445 0.0 48.3843 48.3843
26.88 151.699 0.0 47.926 47.926
26.89 152.402 0.0 47.6284 47.6284
26.9 150.444 0.0 47.5271 47.5271
26.91 145.807 0.0 47.6451 47.6451
26.92 138.555 0.0 47.9855 47.9855
26.93 128.822 0.0 48.5398 48.5398
26.94 116.804 0.0 49.2814 49.2814
26.95 102.736 0.0 50.1763 50.1763
26.96 86.8847 0.0 51.1813 51.1813
26.97 69.534 0.0 52.246 52.246
26.98 50.9745 0.0 53.3255 53.3255
26.99 31.4994 0.0 54.3836 54.3836
27 11.4016 0.0 55.3894 55.3894
27.01 -9.02484 0.0 56.3248 56.3248
27.02 -29.4808 0.0 57.1858 57.1858
27.03 -49.6577 0.0 57.9787 57.9787
27.04 -69.2324 0.0 58.7204 58.7204
27.05 -87.8647 0.0 59.4377 59.4377
27.06 -105.197 0.0 60.1479 60.1479
27.07 -120.858 0.0 60.8777 60.8777
27.08 -134.471 0.0 61.6428 61.6428
27.09 -145.667 0.0 62.4525 62.4525
27.1 -154.103 0.0 63.3011 63.3011
27.11 -159.477 0.0 64.1736 64.1736
27.12 -161.551 0.0 65.0409 65.0409
27.13 -160.173 0.0 65.8628 65.8628
27.14 -155.29 0.0 66.6002 66.6002
27.15 -146.965 0.0 67.2082 67.2082
27.16 -135.381 0.0 67.6449 67.6449
27.17 -120.842 0.0 67.8796 67.8796
27.18 -103.765 0.0 67.89 67.89
27.19 -84.6674 0.0 67.6744 67.6744
27.2 -64.1426 0.0 67.2416 67.2416
27.21 -42.8346 0.0 66.6156 66.6156
27.22 -21.408 0.0 65.848 65.848
27.23 -0.517012 0.0 64.989 64.989
27.24 19.225 0.0 64.101 64.101
27.25 37.2721 0.0 63.2439 63.2439
27.26 53.168 0.0 62.482 62.482
27.27 66.5612 0.0 61.8658 61.8658
27.28 77.2132 0.0 61.4388 61.4388
27.29 84.9997 0.0 61.2263 61.2263
27.3 89.904 0.0 61.24 61.24
27.31 92.0055 0.0 61.4755 61.4755
27.32 91.4625 0.0 61.9135 61.9135
27.33 88.4939 0.0 62.5231 62.5231
27.34 83.358 0.0 63.267 63.267
27.35 76.334 0.0 64.101 64.101
27.36 67.7044 0.0 64.9826 64.9826
27.37 57.742 0.0 65.871 65.871
27.38 46.7001 0.0 66.7349 66.7349
27.39 34.8076 0.0 67.5414 67.5414
27.4 22.2684 0.0 68.2726 68.2726
27.41 9.26306 0.0 68.9169 68.9169
27.42 -4.04583 0.0 69.4648 69.4648
27.43 -17.5081 0.0 69.9131 69.9131
27.44 -30.9798 0.0 70.2548 70.2548
27.45 -44.3187 0.0 70.4867 70.4867
27.46 -57.3808 0.0 70.5988 70.5988
27.47 -70.0199 0.0 70.5729 70.5729
27.48 -82.0894 0.0 70.3904 70.3904
27.49 -93.4464 0.0 70.0284 70.0284
27.5 -103.958 0.0 69.4581 69.4581
27.51 -113.508 0.0 68.6533 68.6533
27.52 -122.005 0.0 67.5921 67.5921
27.53 -129.387 0.0 66.2551 66.2551
27.54 -135.629 0.0 64.6337 64.6337
27.55 -140.742 0.0 62.7295 62.7295
27.56 -144.779 0.0 60.5544 60.5544
27.57 -147.827 0.0 58.1355 58.1355
27.58 -150.001 0.0 55.5074 55.5074
27.59 -151.445 0.0 52.7161 52.7161
27.6 -152.313 0.0 49.8113 49.8113
27.61 -152.767 0.0 46.848 46.848
27.62 -152.962 0.0 43.8743 43.8743
27.63 -153.043 0.0 40.9385 40.9385
27.64 -153.13 0.0 38.0779 38.0779
27.65 -153.32 0.0 35.3201 35.3201
27.66 -153.679 0.0 32.6848 32.6848
27.67 -154.239 0.0 30.1778 30.1778
27.68 -155.001 0.0 27.7971 27.7971
27.69 -155.935 0.0 25.5341 25.5341
27.7 -156.982 0.0 23.3797 23.3797
27.71 -158.056 0.0 21.3181 21.3181
27.72 -159.051 0.0 19.338 19.338
27.73 -159.841 0.0 17.4346 17.4346
27.74 -160.284 0.0 15.6069 15.6069
27.75 -160.229 0.0 13.8575 13.8575
27.76 -159.515 0.0 12.2007 12.2007
27.77 -157.98 0.0 10.6467 10.6467
27.78 -155.463 0.0 9.21006 9.21006
27.79 -151.813 0.0 7.90159 7.90159
27.8 -146.892 0.0 6.72276 6.72276
27.81 -140.588 0.0 5.67368 5.67368
27.82 -132.82 0.0 4.73202 4.73202
27.83 -123.55 0.0 3.87205 3.87205
27.84 -112.789 0.0 3.05344 3.05344
27.85 -100.608 0.0 2.22684 2.22684
27.86 -87.1386 0.0 1.33459 1.33459
27.87 -72.5817 0.0 0.31969 0.31969
27.88 -57.2033 0.0 -0.871662 -0.871662
27.89 -41.3316 0.0 -2.28135 -2.28135
27.9 -25.3482 0.0 -3.93976 -3.93976
27.91 -9.67586 0.0 -5.85814 -5.85814
27.92 5.23753 0.0 -8.02553 -8.02553
27.93 18.9375 0.0 -10.4115 -10.4115
27.94 30.9836 0.0 -12.9616 -12.9616
27.95 40.9706 0.0 -15.6046 -15.6046
27.96 48.5483 0.0 -18.2593 -18.2593
27.97 53.4403 0.0 -20.8363 -20.8363
27.98 55.4589 0.0 -23.2469 -23.2469
27.99 54.5157 0.0 -25.4167 -25.4167
28 50.6274 0.0 -27.2814 -27.2814
28.01 43.9171 0.0 -28.8031 -28.8031
28.02 34.6094 0.0 -29.9684 -29.9684
28.03 23.0212 0.0 -30.7882 -30.7882
28.04 9.54882 0.0 -31.3058 -31.3058
28.05 -5.34881 0.0 -31.5762 -31.5762
28.06 -21.1685 0.0 -31.6895 -31.6895
28.07 -37.3824 0.0 -31.7316 -31.7316
28.08 -53.4575 0.0 -31.7975 -31.7975
28.09 -68.8735 0.0 -31.9735 -31.9735
28.1 -83.1405 0.0 -32.3335 -32.3335
28.11 -95.8122 0.0 -32.9338 -32.9338
28.12 -106.498 0.0 -33.8018 -33.8018
28.13 -114.873 0.0 -34.9422 -34.9422
28.14 -120.681 0.0 -36.3341 -36.3341
28.15 -123.742 0.0 -37.9365 -37.9365
28.16 -123.953 0.0 -39.6857 -39.6857
28.17 -121.285 0.0 -41.5107 -41.5107
28.18 -115.784 0.0 -43.3419 -43.3419
28.19 -107.566 0.0 -45.1085 -45.1085
28.2 -96.8109 0.0 -46.7601 -46.7601
28.21 -83.7607 0.0 -48.2603 -48.2603
28.22 -68.7069 0.0 -49.5921 -49.5921
28.23 -51.9844 0.0 -50.7656 -50.7656
28.24 -33.9604 0.0 -51.8116 -51.8116
28.25 -15.0234 0.0 -52.7766 -52.7766
28.26 4.42909 0.0 -53.7151 -53.7151
28.27 24.0036 0.0 -54.6906 -54.6906
28.28 43.3235 0.0 -55.7565 -55.7565
28.29 62.0413 0.0 -56.9563 -56.9563
28.3 79.8503 0.0 -58.3173 -58.3173
28.31 96.4932 0.0 -59.8322 -59.8322
28.32 111.77 0.0 -61.4788 -61.4788
28.33 125.54 0.0 -63.205 -63.205
28.34 137.725 0.0 -64.94 -64.94
28.35 148.304 0.0 -66.5953 -66.5953
28.36 157.309 0.0 -68.0755 -68.0755
28.37 164.816 0.0 -69.2868 -69.2868
28.38 170.932 0.0 -70.1495 -70.1495
28.39 175.786 0.0 -70.5971 -70.5971
28.4 179.518 0.0 -70.5981 -70.5981
28.41 182.264 0.0 -70.1484 -70.1484
28.42 184.151 0.0 -69.2777 -69.2777
28.43 185.285 0.0 -68.0489 -68.0489
28.44 185.753 0.0 -66.5511 -66.5511
28.45 185.619 0.0 -64.892 -64.892
28.46 184.926 0.0 -63.1914 -63.1914
28.47 183.704 0.0 -61.5698 -61.5698
28.48 181.972 0.0 -60.1347 -60.1347
28.49 179.749 0.0 -58.9754 -58.9754
28.5 177.063 0.0 -58.1514 -58.1514
28.51 173.954 0.0 -57.6916 -57.6916
28.52 170.478 0.0 -57.5916 -57.5916
28.53 166.713 0.0 -57.8081 -57.8081
28.54 162.756 0.0 -58.2793 -58.2793
28.55 158.718 0.0 -58.9181 -58.9181
28.56 154.717 0.0 -59.6292 -59.6292
28.57 150.871 0.0 -60.3176 -60.3176
28.58 147.284 0.0 -60.8979 -60.8979
28.59 144.04 0.0 -61.3052 -61.3052
28.6 141.191 0.0 -61.5048 -61.5048
28.61 138.747 0.0 -61.4882 -61.4882
28.62 136.676 0.0 -61.2804 -61.2804
28.63 134.899 0.0 -60.9321 -60.9321
28.64 133.293 0.0 -60.5218 -60.5218
28.65 131.698 0.0 -60.1307 -60.1307
28.66 129.926 0.0 -59.8515 -59.8515
28.67 127.777 0.0 -59.7651 -59.7651
28.68 125.047 0.0 -59.9344 -59.9344
28.69 121.55 0.0 -60.3937 -60.3937
28.7 117.126 0.0 -61.1483 -61.1483
28.71 111.662 0.0 -62.1656 -62.1656
28.72 105.093 0.0 -63.3835 -63.3835
28.73 97.4192 0.0 -64.7102 -64.7102
28.74 88.699 0.0 -66.035 -66.035
28.75 79.0543 0.0 -67.2373 -67.2373
28.76 68.6623 0.0 -68.2033 -68.2033
28.77 57.7468 0.0 -68.8288 -68.8288
28.78 46.5664 0.0 -69.0414 -69.0414
28.79 35.3996 0.0 -68.7986 -68.7986
28.8 24.5298 0.0 -68.0958 -68.0958
28.81 14.2295 0.0 -66.9785 -66.9785
28.82 4.74594 0.0 -65.5169 -65.5169
28.83 -3.71265 0.0 -63.8153 -63.8153
28.84 -10.9872 0.0 -62.0038 -62.0038
28.85 -16.9758 0.0 -60.2142 -60.2142
28.86 -21.6387 0.0 -58.5783 -58.5783
28.87 -24.999 0.0 -57.209 -57.209
28.88 -27.1417 0.0 -56.1933 -56.1933
28.89 -28.2083 0.0 -55.5777 -55.5777
28.9 -28.3897 0.0 -55.3753 -55.3753
28.91 -27.9165 0.0 -55.5535 -55.5535
28.92 -27.0473 0.0 -56.0457 -56.0457
28.93 -26.0566 0.0 -56.7544 -56.7544
28.94 -25.2211 0.0 -57.5639 -57.5639
28.95 -24.8062 0.0 -58.3528 -58.3528
28.96 -25.0529 0.0 -59.0031 -59.0031
28.97 -26.1655 0.0 -59.4185 -59.4185
28.98 -28.3007 0.0 -59.5243 -59.5243
28.99 -31.5588 0.0 -59.2852 -59.2852
29 -35.977 0.0 -58.7 -58.7
29.01 -41.5259 0.0 -57.8021 -57.8021
29.02 -48.1085 0.0 -56.6565 -56.6565
29.03 -55.5635 0.0 -55.3485 -55.3485
29.04 -63.6706 0.0 -53.9774 -53.9774
29.05 -72.1603 0.0 -52.6377 -52.6377
29.06 -80.7257 0.0 -51.4183 -51.4183
29.07 -89.0364 0.0 -50.3806 -50.3806
29.08 -96.7551 0.0 -49.5629 -49.5629
29.09 -103.553 0.0 -48.9666 -48.9666
29.1 -109.128 0.0 -48.5626 -48.5626
29.11 -113.217 0.0 -48.3001 -48.3001
29.12 -115.609 0.0 -48.1 -48.1
29.13 -116.157 0.0 -47.8794 -47.8794
29.14 -114.78 0.0 -47.5582 -47.5582
29.15 -111.468 0.0 -47.0686 -47.0686
29.16 -106.28 0.0 -46.3642 -46.3642
29.17 -99.3327 0.0 -45.4353 -45.4353
29.18 -90.7982 0.0 -44.3038 -44.3038
29.19 -80.8873 0.0 -43.0277 -43.0277
29.2 -69.8387 0.0 -41.6973 -41.6973
29.21 -57.9046 0.0 -40.4284 -40.4284
29.22 -45.3385 0.0 -39.3375 -39.3375
29.23 -32.3839 0.0 -38.5481 -38.5481
29.24 -19.2664 0.0 -38.1666 -38.1666
29.25 -6.18797 0.0 -38.269 -38.269
29.26 6.67499 0.0 -38.899 -38.899
29.27 19.1709 0.0 -40.0489 -40.0489
29.28 31.1693 0.0 -41.6713 -41.6713
29.29 42.5561 0.0 -43.6701 -43.6701
29.3 53.2266 0.0 -45.9176 -45.9176
29.31 63.0804 0.0 -48.2564 -48.2564
29.32 72.0156 0.0 -50.5246 -50.5246
29.33 79.9262 0.0 -52.5662 -52.5662
29.34 86.7015 0.0 -54.2405 -54.2405
29.35 92.2279 0.0 -55.4399 -55.4399
29.36 96.3945 0.0 -56.1075 -56.1075
29.37 99.0998 0.0 -56.2298 -56.2298
29.38 100.261 0.0 -55.844 -55.844
29.39 99.8235 0.0 -55.0335 -55.0335
29.4 97.7703 0.0 -53.9143 -53.9143
29.41 94.1295 0.0 -52.6295 -52.6295
29.42 88.9801 0.0 -51.3251 -51.3251
29.43 82.4539 0.0 -50.1419 -50.1419
29.44 74.7339 0.0 -49.1979 -49.1979
29.45 66.0484 0.0 -48.5764 -48.5764
29.46 56.6622 0.0 -48.3112 -48.3112
29.47 46.8639 0.0 -48.4019 -48.4019
29.48 36.9512 0.0 -48.7952 -48.7952
29.49 27.2158 0.0 -49.4028 -49.4028
29.5 17.9274 0.0 -50.1094 -50.1094
29.51 9.31989 0.0 -50.7919 -50.7919
29.52 1.58023 0.0 -51.3272 -51.3272
29.53 -5.15958 0.0 -51.6134 -51.6134
29.54 -10.8262 0.0 -51.5798 -51.5798
29.55 -15.4042 0.0 -51.1988 -51.1988
29.56 -18.9316 0.0 -50.4914 -50.4914
29.57 -21.4914 0.0 -49.5216 -49.5216
29.58 -23.2003 0.0 -48.3967 -48.3967
29.59 -24.1963 0.0 -47.2547 -47.2547
29.6 -24.6253 0.0 -46.2447 -46.2447
29.61 -24.6284 0.0 -45.5206 -45.5206
29.62 -24.3316 0.0 -45.2134 -45.2134
29.63 -23.8373 0.0 -45.4217 -45.4217
29.64 -23.2193 0.0 -46.1977 -46.1977
29.65 -22.5218 0.0 -47.5382 -47.5382
29.66 -21.7605 0.0 -49.3835 -49.3835
29.67 -20.9279 0.0 -51.6201 -51.6201
29.68 -19.9992 0.0 -54.0858 -54.0858
29.69 -18.9411 0.0 -56.5909 -56.5909
29.7 -17.7193 0.0 -58.9317 -58.9317
29.71 -16.3068 0.0 -60.9042 -60.9042
29.72 -14.6894 0.0 -62.3326 -62.3326
29.73 -12.8699 0.0 -63.0771 -63.0771
29.74 -10.8697 0.0 -63.0513 -63.0513
29.75 -8.7275 0.0 -62.2265 -62.2265
29.76 -6.49569 0.0 -60.6393 -60.6393
29.77 -4.235 0.0 -58.381 -58.381
29.78 -2.00758 0.0 -55.5914 -55.5914
29.79 0.130446 0.0 -52.4424 -52.4424
29.8 2.13614 0.0 -49.1251 -49.1251
29.81 3.98594 0.0 -45.8279 -45.8279
29.82 5.68018 0.0 -42.7192 -42.7192
29.83 7.24546 0.0 -39.9325 -39.9325
29.84 8.73455 0.0 -37.5576 -37.5576
29.85 10.2239 0.0 -35.6319 -35.6319
29.86 11.8086 0.0 -34.1376 -34.1376
29.87 13.5958 0.0 -33.0148 -33.0148
29.88 15.6961 0.0 -32.1601 -32.1601
29.89 18.2146 0.0 -31.4506 -31.4506
29.9 21.2412 0.0 -30.7512 -30.7512
29.91 24.8422 0.0 -29.9342 -29.9342
29.92 29.0516 0.0 -28.8956 -28.8956
29.93 33.8656 0.0 -27.5636 -27.5636
29.94 39.237 0.0 -25.907 -25.907
29.95 45.0735 0.0 -23.9385 -23.9385
29.96 51.2371 0.0 -21.7151 -21.7151
29.97 57.5464 0.0 -19.3244 -19.3244
29.98 63.7805 0.0 -16.8805 -16.8805
29.99 69.6856 0.0 -14.5106 -14.5106
30 74.9829 0.0 -12.3369 -12.3369
30.01 79.3784 0.0 -10.4614 -10.4614
30.02 82.5742 0.0 -8.96018 -8.96018
30.03 84.2799 0.0 -7.87189 -7.87189
30.04 84.2257 0.0 -7.19071 -7.19071
30.05 82.175 0.0 -6.86997 -6.86997
30.06 77.9366 0.0 -6.82659 -6.82659
30.07 71.3766 0.0 -6.94961 -6.94961
30.08 62.4283 0.0 -7.1123 -7.1123
30.09 51.1002 0.0 -7.18022 -7.18022
30.1 37.4816 0.0 -7.03461 -7.03461
30.11 21.7446 0.0 -6.57862 -6.57862
30.12 4.14292 0.0 -5.74392 -5.74392
30.13 -14.9936 0.0 -4.50242 -4.50242
30.14 -35.268 0.0 -2.87296 -2.87296
30.15 -56.2298 0.0 -0.906222 -0.906222
30.16 -77.3908 0.0 1.31379 1.31379
30.17 -98.2451 0.0 3.67807 3.67807
30.18 -118.29 0.0 6.06368 6.06368
30.19 -137.047 0.0 8.35369 8.35369
30.2 -154.085 0.0 10.4365 10.4365
30.21 -169.038 0.0 12.2296 12.2296
30.22 -181.623 0.0 13.669 13.669
30.23 -191.653 0.0 14.736 14.736
30.24 -199.043 0.0 15.442 15.442
30.25 -203.813 0.0 15.8284 15.8284
30.26 -206.087 0.0 15.9639 15.9639
30.27 -206.079 0.0 15.9342 15.9342
30.28 -204.086 0.0 15.8289 15.8289
30.29 -200.465 0.0 15.74 15.74
30.3 -195.617 0.0 15.7447 15.7447
30.31 -189.962 0.0 15.9054 15.9054
30.32 -183.923 0.0 16.2576 16.2576
30.33 -177.897 0.0 16.8152 16.8152
30.34 -172.248 0.0 17.5621 17.5621
30.35 -167.284 0.0 18.4714 18.4714
30.36 -163.253 0.0 19.4969 19.4969
30.37 -160.332 0.0 20.5828 20.5828
30.38 -158.629 0.0 21.6774 21.6774
30.39 -158.186 0.0 22.7348 22.7348
30.4 -158.978 0.0 23.723 23.723
30.41 -160.927 0.0 24.6273 24.6273
30.42 -163.908 0.0 25.4488 25.4488
30.43 -167.755 0.0 26.2081 26.2081
30.44 -172.275 0.0 26.943 26.943
30.45 -177.251 0.0 27.6998 27.6998
30.46 -182.45 0.0 28.5315 28.5315
30.47 -187.627 0.0 29.4868 29.4868
30.48 -192.53 0.0 30.6114 30.6114
30.49 -196.903 0.0 31.9381 31.9381
30.5 -200.486 0.0 33.4847 33.4847
30.51 -203.02 0.0 35.2486 35.2486
30.52 -204.252 0.0 37.2127 37.2127
30.53 -203.939 0.0 39.3452 39.3452
30.54 -201.857 0.0 41.5964 41.5964
30.55 -197.808 0.0 43.9094 43.9094
30.56 -191.631 0.0 46.2245 46.2245
30.57 -183.214 0.0 48.4808 48.4808
30.58 -172.502 0.0 50.6226 50.6226
30.59 -159.51 0.0 52.5967 52.5967
30.6 -144.329 0.0 54.3664 54.3664
30.61 -127.133 0.0 55.9025 55.9025
30.62 -108.172 0.0 57.1861 57.1861
30.63 -87.7777 0.0 58.2067 58.2067
30.64 -66.3461 0.0 58.9751 58.9751
30.65 -44.3271 0.0 59.4971 59.4971
30.66 -22.2047 0.0 59.7907 59.7907
30.67 -0.475197 0.0 59.8812 59.8812
30.68 20.3774 0.0 59.7956 59.7956
30.69 39.906 0.0 59.563 59.563
30.7 57.7244 0.0 59.2236 59.2236
30.71 73.5287 0.0 58.8133 58.8133
30.72 87.114 0.0 58.382 58.382
30.73 98.3859 0.0 57.9741 57.9741
30.74 107.365 0.0 57.6365 57.6365
30.75 114.187 0.0 57.4171 57.4171
30.76 119.088 0.0 57.3625 57.3625
30.77 122.397 0.0 57.5121 57.5121
30.78 124.506 0.0 57.8931 57.8931
30.79 125.851 0.0 58.5252 58.5252
30.8 126.881 0.0 59.4065 59.4065
30.81 128.029 0.0 60.5204 60.5204
30.82 129.686 0.0 61.8284 61.8284
30.83 132.174 0.0 63.2747 63.2747
30.84 135.729 0.0 64.7875 64.7875
30.85 140.483 0.0 66.2795 66.2795
30.86 146.458 0.0 67.6607 67.6607
30.87 153.565 0.0 68.8323 68.8323
30.88 161.608 0.0 69.7077 69.7077
30.89 170.302 0.0 70.2138 70.2138
30.9 179.285 0.0 70.2881 70.2881
30.91 188.143 0.0 69.9001 69.9001
30.92 196.435 0.0 69.0426 69.0426
30.93 203.721 0.0 67.7356 67.7356
30.94 209.585 0.0 66.0265 66.0265
30.95 213.662 0.0 63.9873 63.9873
30.96 215.655 0.0 61.7049 61.7049
30.97 215.358 0.0 59.2832 59.2832
30.98 212.661 0.0 56.8272 56.8272
30.99 207.56 0.0 54.4404 54.4404
31 200.154 0.0 52.2169 52.2169
31.01 190.643 0.0 50.2326 50.2326
31.02 179.315 0.0 48.5522 48.5522
31.03 166.529 0.0 47.2099 47.2099
31.04 152.702 0.0 46.2209 46.2209
31.05 138.284 0.0 45.584 45.584
31.06 123.738 0.0 45.2673 45.2673
31.07 109.517 0.0 45.2385 45.2385
31.08 96.0441 0.0 45.4419 45.4419
31.09 83.6955 0.0 45.8235 45.8235
31.1 72.7815 0.0 46.3235 46.3235
31.11 63.5366 0.0 46.8814 46.8814
31.12 56.1114 0.0 47.4366 47.4366
31.13 50.5684 0.0 47.9386 47.9386
31.14 46.8833 0.0 48.3317 48.3317
31.15 44.9496 0.0 48.5704 48.5704
31.16 44.5871 0.0 48.6139 48.6139
31.17 45.554 0.0 48.419 48.419
31.18 47.5608 0.0 47.9552 47.9552
31.19 50.2867 0.0 47.1923 47.1923
31.2 53.3958 0.0 46.1092 46.1092
31.21 56.5542 0.0 44.6978 44.6978
31.22 59.4458 0.0 42.9572 42.9572
31.23 61.7862 0.0 40.9098 40.9098
31.24 63.3351 0.0 38.5889 38.5889
31.25 63.9049 0.0 36.0501 36.0501
31.26 63.3669 0.0 33.3671 33.3671
31.27 61.6541 0.0 30.6289 30.6289
31.28 58.7608 0.0 27.9362 27.9362
31.29 54.7388 0.0 25.3972 25.3972
31.3 49.6914 0.0 23.1166 23.1166
31.31 43.7653 0.0 21.1887 21.1887
31.32 37.1403 0.0 19.6927 19.6927
31.33 30.0189 0.0 18.6831 18.6831
31.34 22.6154 0.0 18.1766 18.1766
31.35 15.1446 0.0 18.1634 18.1634
31.36 7.81293 0.0 18.5931 18.5931
31.37 0.809529 0.0 19.3805 19.3805
31.38 -5.69995 0.0 20.419 20.419
31.39 -11.5781 0.0 21.5721 21.5721
31.4 -16.7181 0.0 22.7011 22.7011
31.41 -21.045 0.0 23.669 23.669
31.42 -24.5139 0.0 24.3519 24.3519
31.43 -27.1079 0.0 24.6519 24.6519
31.44 -28.8349 0.0 24.5039 24.5039
31.45 -29.7229 0.0 23.8839 23.8839
31.46 -29.816 0.0 22.81 22.81
31.47 -29.1701 0.0 21.3401 21.3401
31.48 -27.8492 0.0 19.5672 19.5672
31.49 -25.9223 0.0 17.6113 17.6113
31.5 -23.4614 0.0 15.6084 15.6084
31.51 -20.5397 0.0 13.6927 13.6927
31.52 -17.2314 0.0 11.9924 11.9924
31.53 -13.6118 0.0 10.6118 10.6118
31.54 -9.75744 0.0 9.62544 9.62544
31.55 -5.74691 0.0 9.06691 9.06691
31.56 -1.66133 0.0 8.93533 8.93533
31.57 2.41569 0.0 9.18531 9.18531
31.58 6.39862 0.0 9.74438 9.74438
31.59 10.2014 0.0 10.5086 10.5086
31.6 13.7397 0.0 11.3673 11.3673
31.61 16.9339 0.0 12.2041 12.2041
31.62 19.7129 0.0 12.9101 12.9101
31.63 22.0182 0.0 13.3988 13.3988
31.64 23.8083 0.0 13.6097 13.6097
31.65 25.0626 0.0 13.5174 13.5174
31.66 25.7848 0.0 13.1202 13.1202
31.67 26.0053 0.0 12.4547 12.4547
31.68 25.782 0.0 11.582 11.582
31.69 25.1997 0.0 10.5793 10.5793
31.7 24.3676 0.0 9.53137 9.53137
31.71 23.4147 0.0 8.52026 8.52026
31.72 22.4839 0.0 7.62208 7.62208
31.73 21.7243 0.0 6.89574 6.89574
31.74 21.2824 0.0 6.37159 6.37159
31.75 21.2933 0.0 6.06967 6.06967
31.76 21.8711 0.0 5.9749 5.9749
31.77 23.1003 0.0 6.06271 6.06271
31.78 25.0287 0.0 6.28834 6.28834
31.79 27.6617 0.0 6.60934 6.60934
31.8 30.9591 0.0 6.97587 6.97587
31.81 34.8347 0.0 7.35127 7.35127
31.82 39.158 0.0 7.703 7.703
31.83 43.7592 0.0 8.01978 8.01978
31.84 48.4367 0.0 8.30226 8.30226
31.85 52.9663 0.0 8.55966 8.55966
31.86 57.1122 0.0 8.81376 8.81376
31.87 60.6389 0.0 9.08814 9.08814
31.88 63.3228 0.0 9.40221 9.40221
31.89 64.9641 0.0 9.7699 9.7699
31.9 65.3964 0.0 10.1936 10.1936
31.91 64.495 0.0 10.658 10.658
31.92 62.1825 0.0 11.1405 11.1405
31.93 58.432 0.0 11.599 11.599
31.94 53.2675 0.0 11.9945 11.9945
31.95 46.7615 0.0 12.2805 12.2805
31.96 39.0302 0.0 12.4248 12.4248
31.97 30.2272 0.0 12.4008 12.4008
31.98 20.5349 0.0 12.2071 12.2071
31.99 10.1562 0.0 11.8688 11.8688
32 -0.694869 0.0 11.4309 11.4309
32.01 -11.8018 0.0 10.9638 10.9638
32.02 -22.9534 0.0 10.5484 10.5484
32.03 -33.9501 0.0 10.2861 10.2861
32.04 -44.6094 0.0 10.2694 10.2694
32.05 -54.769 0.0 10.587 10.587
32.06 -64.2891 0.0 11.2931 11.2931
32.07 -73.0528 0.0 12.4288 12.4288
32.08 -80.9656 0.0 13.9866 13.9866
32.09 -87.9545 0.0 15.9295 15.9295
32.1 -93.9659 0.0 18.1759 18.1759
32.11 -98.9644 0.0 20.6184 20.6184
32.12 -102.931 0.0 23.1268 23.1268
32.13 -105.861 0.0 25.5666 25.5666
32.14 -107.763 0.0 27.8034 27.8034
32.15 -108.662 0.0 29.7229 29.7229
32.16 -108.591 0.0 31.2402 31.2402
32.17 -107.599 0.0 32.3138 32.3138
32.18 -105.744 0.0 32.9495 32.9495
32.19 -103.095 0.0 33.1926 33.1926
32.2 -99.7304 0.0 33.1404 33.1404
32.21 -95.7357 0.0 32.9117 32.9117
32.22 -91.1998 0.0 32.6578 32.6578
32.23 -86.2125 0.0 32.5255 32.5255
32.24 -80.8613 0.0 32.6573 32.6573
32.25 -75.2272 0.0 33.1642 33.1642
32.26 -69.382 0.0 34.122 34.122
32.27 -63.3849 0.0 35.5599 35.5599
32.28 -57.2813 0.0 37.4473 37.4473
32.29 -51.1018 0.0 39.7138 39.7138
32.3 -44.8625 0.0 42.2335 42.2335
32.31 -38.5671 0.0 44.8611 44.8611
32.32 -32.2102 0.0 47.4262 47.4262
32.33 -25.7804 0.0 49.7624 49.7624
32.34 -19.2661 0.0 51.7161 51.7161
32.35 -12.6594 0.0 53.1754 53.1754
32.36 -5.96135 0.0 54.0704 54.0704
32.37 0.814351 0.0 54.3776 54.3776
32.38 7.6382 0.0 54.1388 54.1388
32.39 14.4634 0.0 53.4356 53.4356
32.4 21.2258 0.0 52.4002 52.4002
32.41 27.8454 0.0 51.1856 51.1856
32.42 34.2295 0.0 49.9645 49.9645
32.43 40.2768 0.0 48.9002 48.9002
32.44 45.8826 0.0 48.1334 48.1334
32.45 50.9441 0.0 47.7699 47.7699
32.46 55.3663 0.0 47.8697 47.8697
32.47 59.0666 0.0 48.4454 48.4454
32.48 61.979 0.0 49.451 49.451
32.49 64.0565 0.0 50.8045 50.8045
32.5 65.2732 0.0 52.3848 52.3848
32.51 65.6233 0.0 54.0537 54.0537
32.52 65.1209 0.0 55.6691 55.6691
32.53 63.7967 0.0 57.0973 57.0973
32.54 61.6955 0.0 58.2315 58.2315
32.55 58.873 0.0 59 59
32.56 55.3925 0.0 59.3745 59.3745
32.57 51.3225 0.0 59.3735 59.3735
32.58 46.735 0.0 59.046 59.046
32.59 41.7048 0.0 58.4842 58.4842
32.6 36.3094 0.0 57.7926 57.7926
32.61 30.6307 0.0 57.0833 57.0833
32.62 24.7558 0.0 56.4642 56.4642
32.63 18.7793 0.0 56.0177 56.0177
32.64 12.804 0.0 55.802 55.802
32.65 6.94202 0.0 55.829 55.829
32.66 1.31326 0.0 56.0837 56.0837
32.67 -3.95667 0.0 56.5027 56.5027
32.68 -8.74092 0.0 56.9969 56.9969
32.69 -12.9175 0.0 57.4625 57.4625
32.7 -16.3767 0.0 57.7827 57.7827
32.71 -19.0303 0.0 57.8483 57.8483
32.72 -20.8204 0.0 57.5704 57.5704
32.73 -21.7284 0.0 56.8824 56.8824
32.74 -21.7834 0.0 55.7534 55.7534
32.75 -21.0675 0.0 54.1865 54.1865
32.76 -19.7196 0.0 52.2246 52.2246
32.77 -17.9348 0.0 49.9298 49.9298
32.78 -15.9611 0.0 47.3901 47.3901
32.79 -14.0909 0.0 44.7009 44.7009
32.8 -12.6502 0.0 41.9552 41.9552
32.81 -11.9833 0.0 39.2383 39.2383
32.82 -12.4356 0.0 36.6166 36.6166
32.83 -14.3342 0.0 34.1262 34.1262
32.84 -17.9685 0.0 31.7905 31.7905
32.85 -23.5712 0.0 29.6022 29.6022
32.86 -31.301 0.0 27.535 27.535
32.87 -41.2292 0.0 25.5672 25.5672
32.88 -53.3292 0.0 23.6582 23.6582
32.89 -67.4721 0.0 21.7951 21.7951
32.9 -83.4261 0.0 19.9601 19.9601
32.91 -100.863 0.0 18.1796 18.1796
32.92 -119.367 0.0 16.4787 16.4787
32.93 -138.453 0.0 14.9018 14.9018
32.94 -157.583 0.0 13.5273 13.5273
32.95 -176.191 0.0 12.4073 12.4073
32.96 -193.704 0.0 11.6188 11.6188
32.97 -209.566 0.0 11.1908 11.1908
32.98 -223.264 0.0 11.1516 11.1516
32.99 -234.346 0.0 11.4717 11.4717
33 -242.441 0.0 12.1061 12.1061
33.01 -247.273 0.0 12.9584 12.9584
33.02 -248.67 0.0 13.9073 13.9073
33.03 -246.569 0.0 14.8071 14.8071
33.04 -241.017 0.0 15.5121 15.5121
33.05 -232.167 0.0 15.873 15.873
33.06 -220.269 0.0 15.773 15.773
33.07 -205.659 0.0 15.119 15.119
33.08 -188.744 0.0 13.8832 13.8832
33.09 -169.987 0.0 12.0671 12.0671
33.1 -149.887 0.0 9.74148 9.74148
33.11 -128.965 0.0 7.03142 7.03142
33.12 -107.744 0.0 4.07664 4.07664
33.13 -86.7316 0.0 1.06664 1.06664
33.14 -66.4111 0.0 -1.8319 -1.8319
33.15 -47.2235 0.0 -4.43754 -4.43754
33.16 -29.5596 0.0 -6.62538 -6.62538
33.17 -13.752 0.0 -8.298 -8.298
33.18 -0.0689854 0.0 -9.42001 -9.42001
33.19 11.2884 0.0 -10.0234 -10.0234
33.2 20.1878 0.0 -10.1818 -10.1818
33.21 26.5647 0.0 -10.0337 -10.0337
33.22 30.4205 0.0 -9.7355 -9.7355
33.23 31.8188 0.0 -9.46785 -9.46785
33.24 30.8808 0.0 -9.40084 -9.40084
33.25 27.7797 0.0 -9.67768 -9.67768
33.26 22.7345 0.0 -10.3965 -10.3965
33.27 16.0037 0.0 -11.6047 -11.6047
33.28 7.87804 0.0 -13.274 -13.274
33.29 -1.32639 0.0 -15.3266 -15.3266
33.3 -11.2756 0.0 -17.6144 -17.6144
33.31 -21.6248 0.0 -19.9632 -19.9632
33.32 -32.026 0.0 -22.161 -22.161
33.33 -42.1347 0.0 -24.0103 -24.0103
33.34 -51.6176 0.0 -25.3244 -25.3244
33.35 -60.159 0.0 -25.969 -25.969
33.36 -67.4675 0.0 -25.8755 -25.8755
33.37 -73.2824 0.0 -25.0336 -25.0336
33.38 -77.379 0.0 -23.521 -23.521
33.39 -79.5741 0.0 -21.4769 -21.4769
33.4 -79.7294 0.0 -19.1076 -19.1076
33.41 -77.7554 0.0 -16.6526 -16.6526
33.42 -73.613 0.0 -14.372 -14.372
33.43 -67.3144 0.0 -12.5086 -12.5086
33.44 -58.9222 0.0 -11.2898 -11.2898
33.45 -48.5481 0.0 -10.8699 -10.8699
33.46 -36.3484 0.0 -11.3496 -11.3496
33.47 -22.5201 0.0 -12.7369 -12.7369
33.48 -7.29426 0.0 -14.9777 -14.9777
33.49 9.07098 0.0 -17.929 -17.929
33.5 26.2983 0.0 -21.4073 -21.4073
33.51 44.0997 0.0 -25.1847 -25.1847
33.52 62.1851 0.0 -29.0171 -29.0171
33.53 80.2706 0.0 -32.6896 -32.6896
33.54 98.0865 0.0 -35.9985 -35.9985
33.55 115.384 0.0 -38.8158 -38.8158
33.56 131.94 0.0 -41.0621 -41.0621
33.57 147.563 0.0 -42.7413 -42.7413
33.58 162.095 0.0 -43.9106 -43.9106
33.59 175.408 0.0 -44.6973 -44.6973
33.6 187.412 0.0 -45.2607 -45.2607
33.61 198.042 0.0 -45.7738 -45.7738
33.62 207.262 0.0 -46.4228 -46.4228
33.63 215.056 0.0 -47.3542 -47.3542
33.64 221.425 0.0 -48.6883 -48.6883
33.65 226.38 0.0 -50.4707 -50.4707
33.66 229.935 0.0 -52.7052 -52.7052
33.67 232.108 0.0 -55.323 -55.323
33.68 232.912 0.0 -58.2097 -58.2097
33.69 232.355 0.0 -61.2114 -61.2114
33.7 230.443 0.0 -64.155 -64.155
33.71 227.175 0.0 -66.8671 -66.8671
33.72 222.551 0.0 -69.2004 -69.2004
33.73 216.576 0.0 -71.0397 -71.0397
33.74 209.261 0.0 -72.3317 -72.3317
33.75 200.634 0.0 -73.0705 -73.0705
33.76 190.746 0.0 -73.3193 -73.3193
33.77 179.672 0.0 -73.1895 -73.1895
33.78 167.521 0.0 -72.8261 -72.8261
33.79 154.435 0.0 -72.408 -72.408
33.8 140.593 0.0 -72.0974 -72.0974
33.81 126.21 0.0 -72.0654 -72.0654
33.82 111.532 0.0 -72.4162 -72.4162
33.83 96.8308 0.0 -73.2358 -73.2358
33.84 82.3966 0.0 -74.5286 -74.5286
33.85 68.5285 0.0 -76.2615 -76.2615
33.86 55.5225 0.0 -78.3445 -78.3445
33.87 43.6604 0.0 -80.6394 -80.6394
33.88 33.1973 0.0 -82.9983 -82.9983
33.89 24.3512 0.0 -85.2542 -85.2542
33.9 17.2925 0.0 -87.2695 -87.2695
33.91 12.1364 0.0 -88.9284 -88.9284
33.92 8.93789 0.0 -90.1629 -90.1629
33.93 7.68876 0.0 -90.9608 -90.9608
33.94 8.31838 0.0 -91.3624 -91.3624
33.95 10.6971 0.0 -91.4561 -91.4561
33.96 14.6424 0.0 -91.3684 -91.3684
33.97 19.9273 0.0 -91.2493 -91.2493
33.98 26.2907 0.0 -91.2567 -91.2567
33.99 33.4487 0.0 -91.5217 -91.5217
34 41.1065 0.0 -92.1555 -92.1555
34.01 48.9694 0.0 -93.2124 -93.2124
34.02 56.754 0.0 -94.693 -94.693
34.03 64.1968 0.0 -96.5478 -96.5478
34.04 71.0619 0.0 -98.6639 -98.6639
34.05 77.1458 0.0 -100.897 -100.897
34.06 82.2806 0.0 -103.067 -103.067
34.07 86.3352 0.0 -104.996 -104.996
34.08 89.2147 0.0 -106.515 -106.515
34.09 90.8582 0.0 -107.482 -107.482
34.1 91.2362 0.0 -107.811 -107.811
34.11 90.3473 0.0 -107.467 -107.467
34.12 88.2147 0.0 -106.48 -106.48
34.13 84.8836 0.0 -104.93 -104.93
34.14 80.4181 0.0 -102.953 -102.953
34.15 74.9003 0.0 -100.715 -100.715
34.16 68.4286 0.0 -98.3946 -98.3946
34.17 61.1167 0.0 -96.1637 -96.1637
34.18 53.0938 0.0 -94.1768 -94.1768
34.19 44.5027 0.0 -92.5377 -92.5377
34.2 35.4991 0.0 -91.3031 -91.3031
34.21 26.2488 0.0 -90.4698 -90.4698
34.22 16.9241 0.0 -89.9821 -89.9821
34.23 7.6994 0.0 -89.7294 -89.7294
34.24 -1.25552 0.0 -89.5795 -89.5795
34.25 -9.78195 0.0 -89.371 -89.371
34.26 -17.7401 0.0 -88.9529 -88.9529
34.27 -25.0165 0.0 -88.2055 -88.2055
34.28 -31.5312 0.0 -87.0348 -87.0348
34.29 -37.2432 0.0 -85.4098 -85.4098
34.3 -42.1541 0.0 -83.3529 -83.3529
34.31 -46.3095 0.0 -80.9485 -80.9485
34.32 -49.7968 0.0 -78.3302 -78.3302
34.33 -52.7406 0.0 -75.6634 -75.6634
34.34 -55.2943 0.0 -73.1377 -73.1377
34.35 -57.6302 0.0 -70.9358 -70.9358
34.36 -59.9263 0.0 -69.2207 -69.2207
34.37 -62.3528 0.0 -68.1032 -68.1032
34.38 -65.0577 0.0 -67.6483 -67.6483
34.39 -68.1543 0.0 -67.8427 -67.8427
34.4 -71.7093 0.0 -68.6177 -68.6177
34.41 -75.7353 0.0 -69.8307 -69.8307
34.42 -80.1863 0.0 -71.2987 -71.2987
34.43 -84.9575 0.0 -72.8025 -72.8025
34.44 -89.8898 0.0 -74.1122 -74.1122
34.45 -94.7791 0.0 -75.0179 -75.0179
34.46 -99.3883 0.0 -75.3337 -75.3337
34.47 -103.464 0.0 -74.9363 -74.9363
34.48 -106.752 0.0 -73.7605 -73.7605
34.49 -109.021 0.0 -71.8163 -71.8163
34.5 -110.071 0.0 -69.1845 -69.1845
34.51 -109.76 0.0 -66.0072 -66.0072
34.52 -108.006 0.0 -62.4695 -62.4695
34.53 -104.801 0.0 -58.7924 -58.7924
34.54 -100.212 0.0 -55.1925 -55.1925
34.55 -94.3822 0.0 -51.8848 -51.8848
34.56 -87.5167 0.0 -49.0273 -49.0273
34.57 -79.8775 0.0 -46.7495 -46.7495
34.58 -71.7649 0.0 -45.0961 -45.0961
34.59 -63.5001 0.0 -44.0659 -44.0659
34.6 -55.4056 0.0 -43.5804 -43.5804
34.61 -47.7859 0.0 -43.5121 -43.5121
34.62 -40.9098 0.0 -43.7022 -43.7022
34.63 -34.9945 0.0 -43.9635 -43.9635
34.64 -30.1946 0.0 -44.1184 -44.1184
34.65 -26.5944 0.0 -43.9966 -43.9966
34.66 -24.2052 0.0 -43.4758 -43.4758
34.67 -22.9673 0.0 -42.4697 -42.4697
34.68 -22.7563 0.0 -40.9547 -40.9547
34.69 -23.3933 0.0 -38.9557 -38.9557
34.7 -24.6575 0.0 -36.5455 -36.5455
34.71 -26.3009 0.0 -33.8371 -33.8371
34.72 -28.0639 0.0 -30.9701 -30.9701
34.73 -29.6903 0.0 -28.0837 -28.0837
34.74 -30.941 0.0 -25.316 -25.316
34.75 -31.6062 0.0 -22.7788 -22.7788
34.76 -31.514 0.0 -20.549 -20.549
34.77 -30.5372 0.0 -18.6628 -18.6628
34.78 -28.596 0.0 -17.116 -17.116
34.79 -25.6587 0.0 -15.8613 -15.8613
34.8 -21.7391 0.0 -14.8219 -14.8219
34.81 -16.8926 0.0 -13.8974 -13.8974
34.82 -11.2099 0.0 -12.9851 -12.9851
34.83 -4.81056 0.0 -11.9814 -11.9814
34.84 2.16422 0.0 -10.8082 -10.8082
34.85 9.55866 0.0 -9.41366 -9.41366
34.86 17.2088 0.0 -7.77581 -7.77581
34.87 24.9482 0.0 -5.92317 -5.92317
34.88 32.6125 0.0 -3.90545 -3.90545
34.89 40.0432 0.0 -1.82123 -1.82123
34.9 47.0908 0.0 0.235214 0.235214
34.91 53.6161 0.0 2.13594 2.13594
34.92 59.4921 0.0 3.77489 3.77489
34.93 64.6051 0.0 5.0529 5.0529
34.94 68.8551 0.0 5.89788 5.89788
34.95 72.1569 0.0 6.27114 6.27114
34.96 74.4404 0.0 6.1676 6.1676
34.97 75.652 0.0 5.62297 5.62297
34.98 75.7551 0.0 4.70294 4.70294
34.99 74.7308 0.0 3.50022 3.50022
35 72.5792 0.0 2.1278 2.1278
35.01 69.3197 0.0 0.704322 0.704322
35.02 64.9913 0.0 -0.653278 -0.653278
35.03 59.6527 0.0 -1.83571 -1.83571
35.04 53.3819 0.0 -2.75685 -2.75685
35.05 46.2749 0.0 -3.34385 -3.34385
35.06 38.4447 0.0 -3.56168 -3.56168
35.07 30.0193 0.0 -3.3833 -3.3833
35.08 21.1394 0.0 -2.82443 -2.82443
35.09 11.956 0.0 -1.89996 -1.89996
35.1 2.62715 0.0 -0.651146 -0.651146
35.11 -6.68439 0.0 0.871388 0.871388
35.12 -15.8148 0.0 2.62278 2.62278
35.13 -24.6021 0.0 4.54307 4.54307
35.14 -32.8894 0.0 6.58842 6.58842
35.15 -40.5282 0.0 8.69817 8.69817
35.16 -47.381 0.0 10.832 10.832
35.17 -53.3248 0.0 12.9338 12.9338
35.18 -58.2535 0.0 14.9565 14.9565
35.19 -62.0807 0.0 16.8467 16.8467
35.2 -64.742 0.0 18.55 18.55
35.21 -66.1968 0.0 20.0078 20.0078
35.22 -66.43 0.0 21.17 21.17
35.23 -65.4533 0.0 21.9833 21.9833
35.24 -63.305 0.0 22.409 22.409
35.25 -60.0507 0.0 22.4207 22.4207
35.26 -55.7818 0.0 22.0058 22.0058
35.27 -50.6146 0.0 21.1846 21.1846
35.28 -44.6877 0.0 19.9937 19.9937
35.29 -38.1596 0.0 18.5006 18.5006
35.3 -31.2055 0.0 16.7865 16.7865
35.31 -24.0132 0.0 14.9622 14.9622
35.32 -16.78 0.0 13.142 13.142
35.33 -9.70763 0.0 11.4466 11.4466
35.34 -2.9985 0.0 9.9875 9.9875
35.35 3.1488 0.0 8.8652 8.8652
35.36 8.54371 0.0 8.14829 8.14829
35.37 13.008 0.0 7.88205 7.88205
35.38 16.3795 0.0 8.07346 8.07346
35.39 18.5167 0.0 8.69329 8.69329
35.4 19.3017 0.0 9.67832 9.67832
35.41 18.6441 0.0 10.9439 10.9439
35.42 16.4844 0.0 12.3766 12.3766
35.43 12.7965 0.0 13.8625 13.8625
35.44 7.59026 0.0 15.2847 15.2847
35.45 0.913286 0.0 16.5377 16.5377
35.46 -7.14837 0.0 17.5454 17.5454
35.47 -16.4703 0.0 18.2473 18.2473
35.48 -26.8909 0.0 18.6339 18.6339
35.49 -38.2144 0.0 18.7124 18.7124
35.5 -50.2149 0.0 18.5439 18.5439
35.51 -62.6418 0.0 18.1938 18.1938
35.52 -75.2271 0.0 17.7521 17.7521
35.53 -87.6936 0.0 17.3306 17.3306
35.54 -99.7644 0.0 17.0214 17.0214
35.55 -111.172 0.0 16.923 16.923
35.56 -121.669 0.0 17.0944 17.0944
35.57 -131.038 0.0 17.5885 17.5885
35.58 -139.099 0.0 18.4104 18.4104
35.59 -145.717 0.0 19.5505 19.5505
35.6 -150.808 0.0 20.9623 20.9623
35.61 -154.341 0.0 22.5768 22.5768
35.62 -156.337 0.0 24.3154 24.3154
35.63 -156.872 0.0 26.0868 26.0868
35.64 -156.064 0.0 27.8004 27.8004
35.65 -154.075 0.0 29.3786 29.3786
35.66 -151.092 0.0 30.7503 30.7503
35.67 -147.327 0.0 31.8721 31.8721
35.68 -142.997 0.0 32.7204 32.7204
35.69 -138.319 0.0 33.2872 33.2872
35.7 -133.495 0.0 33.59 33.59
35.71 -128.705 0.0 33.6609 33.6609
35.72 -124.099 0.0 33.5466 33.5466
35.73 -119.79 0.0 33.2946 33.2946
35.74 -115.852 0.0 32.9653 32.9653
35.75 -112.32 0.0 32.6064 32.6064
35.76 -109.189 0.0 32.2721 32.2721
35.77 -106.418 0.0 32.0055 32.0055
35.78 -103.935 0.0 31.8426 31.8426
35.79 -101.645 0.0 31.8169 31.8169
35.8 -99.4356 0.0 31.9546 31.9546
35.81 -97.1839 0.0 32.2799 32.2799
35.82 -94.7637 0.0 32.8107 32.8107
35.83 -92.052 0.0 33.566 33.566
35.84 -88.9345 0.0 34.5545 34.5545
35.85 -85.3093 0.0 35.7913 35.7913
35.86 -81.0903 0.0 37.2753 37.2753
35.87 -76.2088 0.0 38.9988 38.9988
35.88 -70.6144 0.0 40.9474 40.9474
35.89 -64.275 0.0 43.087 43.087
35.9 -57.1755 0.0 45.3765 45.3765
35.91 -49.3173 0.0 47.7523 47.7523
35.92 -40.7164 0.0 50.1464 50.1464
35.93 -31.4025 0.0 52.4865 52.4865
35.94 -21.4173 0.0 54.6803 54.6803
35.95 -10.814 0.0 56.656 56.656
35.96 0.343884 0.0 58.3371 58.3371
35.97 11.9829 0.0 59.6771 59.6771
35.98 24.0199 0.0 60.6261 60.6261
35.99 36.3632 0.0 61.1858 61.1858
36 48.9121 0.0 61.3619 61.3619
36.01 61.5588 0.0 61.1952 61.1952
36.02 74.1886 0.0 60.7514 60.7514
36.03 86.6821 0.0 60.0989 60.0989
36.04 98.9164 0.0 59.3326 59.3326
36.05 110.768 0.0 58.5329 58.5329
36.06 122.115 0.0 57.7841 57.7841
36.07 132.839 0.0 57.1502 57.1502
36.08 142.828 0.0 56.6815 56.6815
36.09 151.982 0.0 56.3913 56.3913
36.1 160.208 0.0 56.2794 56.2794
36.11 167.428 0.0 56.3226 56.3226
36.12 173.581 0.0 56.4623 56.4623
36.13 178.616 0.0 56.645 56.645
36.14 182.501 0.0 56.7983 56.7983
36.15 185.216 0.0 56.8624 56.8624
36.16 186.755 0.0 56.7829 56.7829
36.17 187.125 0.0 56.5269 56.5269
36.18 186.342 0.0 56.0804 56.0804
36.19 184.429 0.0 55.4583 55.4583
36.2 181.416 0.0 54.6915 54.6915
36.21 177.339 0.0 53.8336 53.8336
36.22 172.235 0.0 52.9464 52.9464
36.23 166.141 0.0 52.1028 52.1028
36.24 159.1 0.0 51.354 51.354
36.25 151.153 0.0 50.7569 50.7569
36.26 142.345 0.0 50.3336 50.3336
36.27 132.726 0.0 50.079 50.079
36.28 122.35 0.0 49.9739 49.9739
36.29 111.282 0.0 49.9533 49.9533
36.3 99.5963 0.0 49.9567 49.9567
36.31 87.3837 0.0 49.8853 49.8853
36.32 74.7509 0.0 49.6581 49.6581
36.33 61.8235 0.0 49.1835 49.1835
36.34 48.748 0.0 48.409 48.409
36.35 35.6914 0.0 47.2906 47.2906
36.36 22.8409 0.0 45.8211 45.8211
36.37 10.4012 0.0 44.0408 44.0408
36.38 -1.40904 0.0 42.01 42.01
36.39 -12.362 0.0 39.839 39.839
36.4 -22.2277 0.0 37.6357 37.6357
36.41 -30.7811 0.0 35.5451 35.5451
36.42 -37.8112 0.0 33.6902 33.6902
36.43 -43.1288 0.0 32.1888 32.1888
36.44 -46.5763 0.0 31.1373 31.1373
36.45 -48.035 0.0 30.588 30.588
36.46 -47.4325 0.0 30.5585 30.5585
36.47 -44.7482 0.0 31.0212 31.0212
36.48 -40.0165 0.0 31.9035 31.9035
36.49 -33.3279 0.0 33.1079 33.1079
36.5 -24.8278 0.0 34.4978 34.4978
36.51 -14.7123 0.0 35.9363 35.9363
36.52 -3.22198 0.0 37.282 37.282
36.53 9.36675 0.0 38.3993 38.3993
36.54 22.7517 0.0 39.1923 39.1923
36.55 36.6164 0.0 39.5796 39.5796
36.56 50.642 0.0 39.536 39.536
36.57 64.5186 0.0 39.0564 39.0564
36.58 77.957 0.0 38.191 38.191
36.59 90.6974 0.0 37.0026 37.0026
36.6 102.517 0.0 35.5856 35.5856
36.61 113.237 0.0 34.0488 34.0488
36.62 122.722 0.0 32.4826 32.4826
36.63 130.884 0.0 30.987 30.987
36.64 137.677 0.0 29.6231 29.6231
36.65 143.095 0.0 28.4455 28.4455
36.66 147.164 0.0 27.4695 27.4695
36.67 149.936 0.0 26.6907 26.6907
36.68 151.483 0.0 26.0852 26.0852
36.69 151.883 0.0 25.6127 25.6127
36.7 151.22 0.0 25.228 25.228
36.71 149.571 0.0 24.8896 24.8896
36.72 147.007 0.0 24.5632 24.5632
36.73 143.583 0.0 24.2347 24.2347
36.74 139.344 0.0 23.907 23.907
36.75 134.318 0.0 23.604 23.604
36.76 128.523 0.0 23.3612 23.3612
36.77 121.967 0.0 23.2225 23.2225
36.78 114.657 0.0 23.2412 23.2412
36.79 106.597 0.0 23.4583 23.4583
36.8 97.7997 0.0 23.9053 23.9053
36.81 88.2906 0.0 24.5834 24.5834
36.82 78.1108 0.0 25.4772 25.4772
36.83 67.323 0.0 26.537 26.537
36.84 56.0142 0.0 27.6908 27.6908
36.85 44.2972 0.0 28.8488 28.8488
36.86 32.3108 0.0 29.8972 29.8972
36.87 20.2189 0.0 30.7421 30.7421
36.88 8.2072 0.0 31.2758 31.2758
36.89 -3.5208 0.0 31.4348 31.4348
36.9 -14.7498 0.0 31.1698 31.1698
36.91 -25.2595 0.0 30.4755 30.4755
36.92 -34.8324 0.0 29.3874 29.3874
36.93 -43.2624 0.0 27.9684 27.9684
36.94 -50.3637 0.0 26.3347 26.3347
36.95 -55.9792 0.0 24.6002 24.6002
36.96 -59.9893 0.0 22.9133 22.9133
36.97 -62.319 0.0 21.401 21.401
36.98 -62.9441 0.0 20.1881 20.1881
36.99 -61.8952 0.0 19.3572 19.3572
37 -59.261 0.0 18.958 18.958
37.01 -55.1873 0.0 18.9973 18.9973
37.02 -49.8751 0.0 19.4311 19.4311
37.03 -43.5753 0.0 20.1723 20.1723
37.04 -36.5815 0.0 21.1065 21.1065
37.05 -29.2199 0.0 22.0839 22.0839
37.06 -21.8375 0.0 22.9605 22.9605
37.07 -14.7891 0.0 23.5851 23.5851
37.08 -8.42337 0.0 23.8444 23.8444
37.09 -3.06832 0.0 23.6433 23.6433
37.1 0.98198 0.0 22.949 22.949
37.11 3.4799 0.0 21.7671 21.7671
37.12 4.23465 0.0 20.1533 20.1533
37.13 3.12015 0.0 18.2158 18.2158
37.14 0.0800297 0.0 16.094 16.094
37.15 -4.87063 0.0 13.9486 13.9486
37.16 -11.6468 0.0 11.9528 11.9528
37.17 -20.0982 0.0 10.2692 10.2692
37.18 -30.0168 0.0 9.03184 9.03184
37.19 -41.147 0.0 8.35703 8.35703
37.2 -53.1971 0.0 8.29209 8.29209
37.21 -65.8523 0.0 8.86432 8.86432
37.22 -78.7883 0.0 10.0263 10.0263
37.23 -91.6841 0.0 11.7111 11.7111
37.24 -104.234 0.0 13.8 13.8
37.25 -116.159 0.0 16.1666 16.1666
37.26 -127.213 0.0 18.662 18.662
37.27 -137.194 0.0 21.1477 21.1477
37.28 -145.942 0.0 23.5052 23.5052
37.29 -153.347 0.0 25.6331 25.6331
37.3 -159.343 0.0 27.4684 27.4684
37.31 -163.91 0.0 28.9782 28.9782
37.32 -167.066 0.0 30.1662 30.1662
37.33 -168.864 0.0 31.0573 31.0573
37.34 -169.386 0.0 31.7037 31.7037
37.35 -168.732 0.0 32.1621 32.1621
37.36 -167.019 0.0 32.4952 32.4952
37.37 -164.369 0.0 32.7551 32.7551
37.38 -160.904 0.0 32.9887 32.9887
37.39 -156.738 0.0 33.2095 33.2095
37.4 -151.977 0.0 33.4249 33.4249
37.41 -146.706 0.0 33.6159 33.6159
37.42 -140.992 0.0 33.7592 33.7592
37.43 -134.88 0.0 33.8208 33.8208
37.44 -128.389 0.0 33.763 33.763
37.45 -121.517 0.0 33.5678 33.5678
37.46 -114.238 0.0 33.2231 33.2231
37.47 -106.509 0.0 32.7439 32.7439
37.48 -98.2713 0.0 32.1583 32.1583
37.49 -89.4589 0.0 31.5229 31.5229
37.5 -80.0044 0.0 30.9044 30.9044
37.51 -69.8468 0.0 30.3838 30.3838
37.52 -58.9404 0.0 30.0404 30.0404
37.53 -47.2628 0.0 29.9378 29.9378
37.54 -34.823 0.0 30.138 30.138
37.55 -21.6675 0.0 30.6535 30.6535
37.56 -7.88576 0.0 31.4928 31.4928
37.57 6.38748 0.0 32.6035 32.6035
37.58 20.9721 0.0 33.9279 33.9279
37.59 35.6457 0.0 35.3573 35.3573
37.6 50.1493 0.0 36.7787 36.7787
37.61 64.1968 0.0 38.0792 38.0792
37.62 77.486 0.0 39.122 39.122
37.63 89.7122 0.0 39.8158 39.8158
37.64 100.583 0.0 40.0697 40.0697
37.65 109.835 0.0 39.8493 39.8493
37.66 117.244 0.0 39.1353 39.1353
37.67 122.643 0.0 37.9743 37.9743
37.68 125.929 0.0 36.4346 36.4346
37.69 127.074 0.0 34.6182 34.6182
37.7 126.121 0.0 32.6517 32.6517
37.71 123.191 0.0 30.6725 30.6725
37.72 118.472 0.0 28.8116 28.8116
37.73 112.211 0.0 27.1879 27.1879
37.74 104.7 0.0 25.8926 25.8926
37.75 96.2628 0.0 24.9872 24.9872
37.76 87.2332 0.0 24.4888 24.4888
37.77 77.9405 0.0 24.3735 24.3735
37.78 68.6905 0.0 24.5875 24.5875
37.79 59.75 0.0 25.038 25.038
37.8 51.3341 0.0 25.6179 25.6179
37.81 43.5976 0.0 26.1994 26.1994
37.82 36.6296 0.0 26.6664 26.6664
37.83 30.4536 0.0 26.9054 26.9054
37.84 25.0317 0.0 26.8333 26.8333
37.85 20.2728 0.0 26.3872 26.3872
37.86 16.0439 0.0 25.5391 25.5391
37.87 12.1847 0.0 24.2993 24.2993
37.88 8.52257 0.0 22.7024 22.7024
37.89 4.88871 0.0 20.8143 20.8143
37.9 1.13272 0.0 18.7163 18.7163
37.91 -2.86427 0.0 16.5043 16.5043
37.92 -7.17949 0.0 14.2705 14.2705
37.93 -11.8417 0.0 12.0957 12.0957
37.94 -16.8285 0.0 10.0585 10.0585
37.95 -22.067 0.0 8.20498 8.20498
37.96 -27.439 0.0 6.569 6.569
37.97 -32.789 0.0 5.15601 5.15601
37.98 -37.935 0.0 3.95904 3.95904
37.99 -42.6814 0.0 2.94535 2.94535
38 -46.8322 0.0 2.08022 2.08022
38.01 -50.2056 0.0 1.32258 1.32258
38.02 -52.646 0.0 0.621952 0.621952
38.03 -54.0356 0.0 -0.0533931 -0.0533931
38.04 -54.3034 0.0 -0.73759 -0.73759
38.05 -53.4309 0.0 -1.44714 -1.44714
38.06 -51.455 0.0 -2.19097 -2.19097
38.07 -48.4683 0.0 -2.97469 -2.97469
38.08 -44.6151 0.0 -3.78786 -3.78786
38.09 -40.086 0.0 -4.628 -4.628
38.1 -35.1091 0.0 -5.48194 -5.48194
38.11 -29.9401 0.0 -6.34691 -6.34691
38.12 -24.8512 0.0 -7.22275 -7.22275
38.13 -20.1193 0.0 -8.11471 -8.11471
38.14 -16.0139 0.0 -9.03611 -9.03611
38.15 -12.7865 0.0 -9.99947 -9.99947
38.16 -10.6605 0.0 -11.0235 -11.0235
38.17 -9.82255 0.0 -12.1245 -12.1245
38.18 -10.4157 0.0 -13.3123 -13.3123
38.19 -12.5346 0.0 -14.5874 -14.5874
38.2 -16.2225 0.0 -15.9445 -15.9445
38.21 -21.4702 0.0 -17.3608 -17.3608
38.22 -28.2166 0.0 -18.8114 -18.8114
38.23 -36.3514 0.0 -20.2516 -20.2516
38.24 -45.7188 0.0 -21.6412 -21.6412
38.25 -56.1225 0.0 -22.9295 -22.9295
38.26 -67.3325 0.0 -24.0745 -24.0745
38.27 -79.0915 0.0 -25.0435 -25.0435
38.28 -91.1228 0.0 -25.8032 -25.8032
38.29 -103.138 0.0 -26.3559 -26.3559
38.3 -114.846 0.0 -26.6961 -26.6961
38.31 -125.96 0.0 -26.8524 -26.8524
38.32 -136.205 0.0 -26.8548 -26.8548
38.33 -145.329 0.0 -26.7602 -26.7602
38.34 -153.103 0.0 -26.6096 -26.6096
38.35 -159.335 0.0 -26.4657 -26.4657
38.36 -163.868 0.0 -26.3777 -26.3777
38.37 -166.588 0.0 -26.3828 -26.3828
38.38 -167.425 0.0 -26.508 -26.508
38.39 -166.354 0.0 -26.7639 -26.7639
38.4 -163.396 0.0 -27.1423 -27.1423
38.41 -158.613 0.0 -27.6198 -27.6198
38.42 -152.11 0.0 -28.1658 -28.1658
38.43 -144.026 0.0 -28.7254 -28.7254
38.44 -134.528 0.0 -29.2636 -29.2636
38.45 -123.811 0.0 -29.7238 -29.7238
38.46 -112.084 0.0 -30.0792 -30.0792
38.47 -99.5657 0.0 -30.2983 -30.2983
38.48 -86.4797 0.0 -30.3823 -30.3823
38.49 -73.0452 0.0 -30.3318 -30.3318
38.5 -59.4728 0.0 -30.1862 -30.1862
38.51 -45.9595 0.0 -29.9875 -29.9875
38.52 -32.6852 0.0 -29.7818 -29.7818
38.53 -19.8101 0.0 -29.6419 -29.6419
38.54 -7.47363 0.0 -29.6154 -29.6154
38.55 4.20577 0.0 -29.7688 -29.7688
38.56 15.1303 0.0 -30.1293 -30.1293
38.57 25.2213 0.0 -30.7283 -30.7283
38.58 34.418 0.0 -31.56 -31.56
38.59 42.6757 0.0 -32.6077 -32.6077
38.6 49.9643 0.0 -33.8243 -33.8243
38.61 56.2675 0.0 -35.1475 -35.1475
38.62 61.582 0.0 -36.507 -36.507
38.63 65.9177 0.0 -37.8157 -37.8157
38.64 69.2983 0.0 -38.9953 -38.9953
38.65 71.7618 0.0 -39.9668 -39.9668
38.66 73.3621 0.0 -40.6661 -40.6661
38.67 74.1698 0.0 -41.0538 -41.0538
38.68 74.2725 0.0 -41.1035 -41.1035
38.69 73.7751 0.0 -40.8171 -40.8171
38.7 72.7987 0.0 -40.2227 -40.2227
38.71 71.4781 0.0 -39.3671 -39.3671
38.72 69.959 0.0 -38.311 -38.311
38.73 68.3932 0.0 -37.1362 -37.1362
38.74 66.9331 0.0 -35.9171 -35.9171
38.75 65.7255 0.0 -34.7425 -34.7425
38.76 64.905 0.0 -33.682 -33.682
38.77 64.5877 0.0 -32.8017 -32.8017
38.78 64.8647 0.0 -32.1417 -32.1417
38.79 65.7974 0.0 -31.7344 -31.7344
38.8 67.4137 0.0 -31.5877 -31.5877
38.81 69.7065 0.0 -31.6925 -31.6925
38.82 72.6334 0.0 -32.0234 -32.0234
38.83 76.1188 0.0 -32.5448 -32.5448
38.84 80.0584 0.0 -33.2144 -33.2144
38.85 84.3242 0.0 -33.9842 -33.9842
38.86 88.7721 0.0 -34.8111 -34.8111
38.87 93.2493 0.0 -35.6583 -35.6583
38.88 97.6023 0.0 -36.4933 -36.4933
38.89 101.685 0.0 -37.3032 -37.3032
38.9 105.366 0.0 -38.0719 -38.0719
38.91 108.532 0.0 -38.8084 -38.8084
38.92 111.096 0.0 -39.5183 -39.5183
38.93 112.995 0.0 -40.2165 -40.2165
38.94 114.194 0.0 -40.9213 -40.9213
38.95 114.682 0.0 -41.6472 -41.6472
38.96 114.471 0.0 -42.4105 -42.4105
38.97 113.593 0.0 -43.2119 -43.2119
38.98 112.092 0.0 -44.0547 -44.0547
38.99 110.023 0.0 -44.9259 -44.9259
39 107.448 0.0 -45.8076 -45.8076
39.01 104.429 0.0 -46.6759 -46.6759
39.02 101.03 0.0 -47.5062 -47.5062
39.03 97.3132 0.0 -48.2662 -48.2662
39.04 93.3388 0.0 -48.9318 -48.9318
39.05 89.1669 0.0 -49.4759 -49.4759
39.06 84.8593 0.0 -49.8903 -49.8903
39.07 80.4809 0.0 -50.1649 -50.1649
39.08 76.1024 0.0 -50.3044 -50.3044
39.09 71.8021 0.0 -50.3221 -50.3221
39.1 67.6665 0.0 -50.2345 -50.2345
39.11 63.7904 0.0 -50.0714 -50.0714
39.12 60.2755 0.0 -49.8605 -49.8605
39.13 57.2276 0.0 -49.6296 -49.6296
39.14 54.7526 0.0 -49.3996 -49.3996
39.15 52.9516 0.0 -49.1896 -49.1896
39.16 51.9151 0.0 -49.0061 -49.0061
39.17 51.717 0.0 -48.848 -48.848
39.18 52.4089 0.0 -48.7009 -48.7009
39.19 54.0149 0.0 -48.5459 -48.5459
39.2 56.5278 0.0 -48.3558 -48.3558
39.21 59.9063 0.0 -48.0973 -48.0973
39.22 64.0742 0.0 -47.7452 -47.7452
39.23 68.9217 0.0 -47.2767 -47.2767
39.24 74.3076 0.0 -46.6806 -46.6806
39.25 80.064 0.0 -45.959 -45.959
39.26 86.0017 0.0 -45.1287 -45.1287
39.27 91.9173 0.0 -44.2243 -44.2243
39.28 97.6 0.0 -43.299 -43.299
39.29 102.84 0.0 -42.4159 -42.4159
39.3 107.434 0.0 -41.6495 -41.6495
39.31 111.196 0.0 -41.0753 -41.0753
39.32 113.958 0.0 -40.7665 -40.7665
39.33 115.58 0.0 -40.7881 -40.7881
39.34 115.95 0.0 -41.1803 -41.1803
39.35 114.991 0.0 -41.964 -41.964
39.36 112.659 0.0 -43.1351 -43.1351
39.37 108.947 0.0 -44.6542 -44.6542
39.38 103.884 0.0 -46.4605 -46.4605
39.39 97.5315 0.0 -48.4525 -48.4525
39.4 89.9879 0.0 -50.5299 -50.5299
39.41 81.381 0.0 -52.558 -52.558
39.42 71.8673 0.0 -54.4123 -54.4123
39.43 61.6284 0.0 -55.9764 -55.9764
39.44 50.8669 0.0 -57.1419 -57.1419
39.45 39.8009 0.0 -57.8389 -57.8389
39.46 28.659 0.0 -58.016 -58.016
39.47 17.6736 0.0 -57.6796 -57.6796
39.48 7.07428 0.0 -56.8593 -56.8593
39.49 -2.91981 0.0 -55.6362 -55.6362
39.5 -12.1073 0.0 -54.1177 -54.1177
39.51 -20.3119 0.0 -52.4391 -52.4391
39.52 -27.3897 0.0 -50.7543 -50.7543
39.53 -33.2351 0.0 -49.2139 -49.2139
39.54 -37.7858 0.0 -47.9662 -47.9662
39.55 -41.0264 0.0 -47.1316 -47.1316
39.56 -42.9898 0.0 -46.8062 -46.8062
39.57 -43.7573 0.0 -47.0467 -47.0467
39.58 -43.4559 0.0 -47.8671 -47.8671
39.59 -42.2542 0.0 -49.2388 -49.2388
39.6 -40.3558 0.0 -51.0972 -51.0972
39.61 -37.9917 0.0 -53.3423 -53.3423
39.62 -35.4109 0.0 -55.8541 -55.8541
39.63 -32.8711 0.0 -58.4989 -58.4989
39.64 -30.6276 0.0 -61.1474 -61.1474
39.65 -28.9238 0.0 -63.6762 -63.6762
39.66 -27.9815 0.0 -65.9885 -65.9885
39.67 -27.992 0.0 -68.014 -68.014
39.68 -29.1097 0.0 -69.7173 -69.7173
39.69 -31.4456 0.0 -71.0914 -71.0914
39.7 -35.0639 0.0 -72.1661 -72.1661
39.71 -39.9796 0.0 -72.9874 -72.9874
39.72 -46.1583 0.0 -73.6277 -73.6277
39.73 -53.5179 0.0 -74.1511 -74.1511
39.74 -61.9309 0.0 -74.6301 -74.6301
39.75 -71.2294 0.0 -75.1146 -75.1146
39.76 -81.2105 0.0 -75.6355 -75.6355
39.77 -91.6431 0.0 -76.2029 -76.2029
39.78 -102.276 0.0 -76.7894 -76.7894
39.79 -112.844 0.0 -77.3532 -77.3532
39.8 -123.08 0.0 -77.8209 -77.8209
39.81 -132.721 0.0 -78.1245 -78.1245
39.82 -141.519 0.0 -78.1737 -78.1737
39.83 -149.247 0.0 -77.9074 -77.9074
39.84 -155.707 0.0 -77.2683 -77.2683
39.85 -160.739 0.0 -76.2367 -76.2367
39.86 -164.226 0.0 -74.8261 -74.8261
39.87 -166.094 0.0 -73.0801 -73.0801
39.88 -166.318 0.0 -71.0761 -71.0761
39.89 -164.92 0.0 -68.9272 -68.9272
39.9 -161.966 0.0 -66.7546 -66.7546
39.91 -157.565 0.0 -64.6984 -64.6984
39.92 -151.855 0.0 -62.8898 -62.8898
39.93 -145.005 0.0 -61.4335 -61.4335
39.94 -137.195 0.0 -60.4198 -60.4198
39.95 -128.616 0.0 -59.8848 -59.8848
39.96 -119.453 0.0 -59.8345 -59.8345
39.97 -109.876 0.0 -60.2177 -60.2177
39.98 -100.038 0.0 -60.9537 -60.9537
39.99 -90.0624 0.0 -61.9106 -61.9106
40 -80.0412 0.0 -62.9498 -62.9498
40.01 -70.0355 0.0 -63.9125 -63.9125
40.02 -60.0756 0.0 -64.6404 -64.6404
40.03 -50.1661 0.0 -65.0069 -65.0069
40.04 -40.2919 0.0 -64.9041 -64.9041
40.05 -30.4271 0.0 -64.2759 -64.2759
40.06 -20.5442 0.0 -63.0938 -63.0938
40.07 -10.624 0.0 -61.403 -61.403
40.08 -0.664215 0.0 -59.2688 -59.2688
40.09 9.31218 0.0 -56.8082 -56.8082
40.1 19.2519 0.0 -54.1499 -54.1499
40.11 29.0682 0.0 -51.4372 -51.4372
40.12 38.641 0.0 -48.816 -48.816
40.13 47.8199 0.0 -46.3999 -46.3999
40.14 56.4304 0.0 -44.2904 -44.2904
40.15 64.2822 0.0 -42.5322 -42.5322
40.16 71.1798 0.0 -41.1398 -41.1398
40.17 76.9341 0.0 -40.0831 -40.0831
40.18 81.3739 0.0 -39.2839 -39.2839
40.19 84.3574 0.0 -38.6504 -38.6504
40.2 85.7816 0.0 -38.0576 -38.0576
40.21 85.5898 0.0 -37.3878 -37.3878
40.22 83.7769 0.0 -36.5269 -36.5269
40.23 80.3906 0.0 -35.3826 -35.3826
40.24 75.5308 0.0 -33.8948 -33.8948
40.25 69.3446 0.0 -32.0416 -32.0416
40.26 62.0203 0.0 -29.8383 -29.8383
40.27 53.778 0.0 -27.346 -27.346
40.28 44.8599 0.0 -24.6459 -24.6459
40.29 35.5187 0.0 -21.8507 -21.8507
40.3 26.0073 0.0 -19.0743 -19.0743
40.31 16.5685 0.0 -16.4345 -16.4345
40.32 7.42554 0.0 -14.0285 -14.0285
40.33 -1.22445 0.0 -11.9306 -11.9306
40.34 -9.21645 0.0 -10.1736 -10.1736
40.35 -16.4207 0.0 -8.76228 -8.76228
40.36 -22.7443 0.0 -7.65471 -7.65471
40.37 -28.1306 0.0 -6.77636 -6.77636
40.38 -32.5579 0.0 -6.03513 -6.03513
40.39 -36.0357 0.0 -5.31132 -5.31132
40.4 -38.6016 0.0 -4.49443 -4.49443
40.41 -40.3164 0.0 -3.4756 -3.4756
40.42 -41.2599 0.0 -2.17713 -2.17713
40.43 -41.5259 0.0 -0.545092 -0.545092
40.44 -41.2182 0.0 1.43524 1.43524
40.45 -40.4462 0.0 3.74224 3.74224
40.46 -39.321 0.0 6.30904 6.30904
40.47 -37.952 0.0 9.05202 9.05202
40.48 -36.4436 0.0 11.8576 11.8576
40.49 -34.8922 0.0 14.6082 14.6082
40.5 -33.3837 0.0 17.1857 17.1857
40.51 -31.9914 0.0 19.4924 19.4924
40.52 -30.7737 0.0 21.4547 21.4547
40.53 -29.7732 0.0 23.0282 23.0282
40.54 -29.0155 0.0 24.2155 24.2155
40.55 -28.5096 0.0 25.0446 25.0446
40.56 -28.248 0.0 25.59 25.59
40.57 -28.2083 0.0 25.9463 25.9463
40.58 -28.3553 0.0 26.2213 26.2213
40.59 -28.6435 0.0 26.5345 26.5345
40.6 -29.0206 0.0 26.9966 26.9966
40.61 -29.4303 0.0 27.7023 27.7023
40.62 -29.8167 0.0 28.7197 28.7197
40.63 -30.1266 0.0 30.0846 30.0846
40.64 -30.3133 0.0 31.8013 31.8013
40.65 -30.3379 0.0 33.8419 33.8419
40.66 -30.1716 0.0 36.1466 36.1466
40.67 -29.7959 0.0 38.6379 38.6379
40.68 -29.2028 0.0 41.2278 41.2278
40.69 -28.3937 0.0 43.8247 43.8247
40.7 -27.3784 0.0 46.3414 46.3414
40.71 -26.1733 0.0 48.7143 48.7143
40.72 -24.8002 0.0 50.8992 50.8992
40.73 -23.2844 0.0 52.8694 52.8694
40.74 -21.6542 0.0 54.6342 54.6342
40.75 -19.9403 0.0 56.2163 56.2163
40.76 -18.1756 0.0 57.6636 57.6636
40.77 -16.3966 0.0 59.0256 59.0256
40.78 -14.6439 0.0 60.3599 60.3599
40.79 -12.9634 0.0 61.7134 61.7134
40.8 -11.4079 0.0 63.1229 63.1229
40.81 -10.0371 0.0 64.6061 64.6061
40.82 -8.91795 0.0 66.1599 66.1599
40.83 -8.1233 0.0 67.7613 67.7613
40.84 -7.72991 0.0 69.3699 69.3699
40.85 -7.8149 0.0 70.9349 70.9349
40.86 -8.45133 0.0 72.3983 72.3983
40.87 -9.70288 0.0 73.7089 73.7089
40.88 -11.618 0.0 74.817 74.817
40.89 -14.2242 0.0 75.7042 75.7042
40.9 -17.5224 0.0 76.3634 76.3634
40.91 -21.4827 0.0 76.8157 76.8157
40.92 -26.0415 0.0 77.1085 77.1085
40.93 -31.1005 0.0 77.3045 77.3045
40.94 -36.5277 0.0 77.4907 77.4907
40.95 -42.1609 0.0 77.7529 77.7529
40.96 -47.8136 0.0 78.1826 78.1826
40.97 -53.2824 0.0 78.8564 78.8564
40.98 -58.3561 0.0 79.8331 79.8331
40.99 -62.8259 0.0 81.1449 81.1449
41 -66.4961 0.0 82.7941 82.7941
41.01 -69.1938 0.0 84.7508 84.7508
41.02 -70.7782 0.0 86.9522 86.9522
41.03 -71.1479 0.0 89.3089 89.3089
41.04 -70.2461 0.0 91.7111 91.7111
41.05 -68.0631 0.0 94.0351 94.0351
41.06 -64.6368 0.0 96.1598 96.1598
41.07 -60.0497 0.0 97.9617 97.9617
41.08 -54.4241 0.0 99.3441 99.3441
41.09 -47.9157 0.0 100.229 100.229
41.1 -40.7045 0.0 100.567 100.567
41.11 -32.9862 0.0 100.348 100.348
41.12 -24.9628 0.0 99.5838 99.5838
41.13 -16.8332 0.0 98.3292 98.3292
41.14 -8.78552 0.0 96.6515 96.6515
41.15 -0.990171 0.0 94.6522 94.6522
41.16 6.40523 0.0 92.4318 92.4318
41.17 13.2792 0.0 90.1028 90.1028
41.18 19.5379 0.0 87.7741 87.7741
41.19 25.1152 0.0 85.5398 85.5398
41.2 29.9709 0.0 83.4851 83.4851
41.21 34.0884 0.0 81.6686 81.6686
41.22 37.4709 0.0 80.1351 80.1351
41.23 40.1385 0.0 78.9015 78.9015
41.24 42.1233 0.0 77.9737 77.9737
41.25 43.467 0.0 77.328 77.328
41.26 44.2171 0.0 76.9349 76.9349
41.27 44.4244 0.0 76.7536 76.7536
41.28 44.1419 0.0 76.7311 76.7311
41.29 43.4226 0.0 76.8144 76.8144
41.3 42.3198 0.0 76.9482 76.9482
41.31 40.8862 0.0 77.0788 77.0788
41.32 39.1745 0.0 77.1535 77.1535
41.33 37.2376 0.0 77.1254 77.1254
41.34 35.1286 0.0 76.9544 76.9544
41.35 32.9015 0.0 76.6035 76.6035
41.36 30.611 0.0 76.04 76.04
41.37 28.3125 0.0 75.2505 75.2505
41.38 26.0617 0.0 74.2153 74.2153
41.39 23.9142 0.0 72.9328 72.9328
41.4 21.9249 0.0 71.4071 71.4071
41.41 20.1465 0.0 69.6585 69.6585
41.42 18.6295 0.0 67.7065 67.7065
41.43 17.4202 0.0 65.5858 65.5858
41.44 16.5605 0.0 63.3465 63.3465
41.45 16.0862 0.0 61.0348 61.0348
41.46 16.0262 0.0 58.7048 58.7048
41.47 16.4015 0.0 56.4145 56.4145
41.48 17.2246 0.0 54.2154 54.2154
41.49 18.4983 0.0 52.1567 52.1567
41.5 20.2153 0.0 50.2787 50.2787
41.51 22.3584 0.0 48.6066 48.6066
41.52 24.9 0.0 47.164 47.164
41.53 27.8027 0.0 45.9483 45.9483
41.54 31.0205 0.0 44.9515 44.9515
41.55 34.4994 0.0 44.1536 44.1536
41.56 38.1801 0.0 43.5209 43.5209
41.57 41.9994 0.0 43.0176 43.0176
41.58 45.8932 0.0 42.5998 42.5998
41.59 49.799 0.0 42.224 42.224
41.6 53.6586 0.0 41.8524 41.8524
41.61 57.4211 0.0 41.4479 41.4479
41.62 61.045 0.0 40.98 40.98
41.63 64.5 0.0 40.425 40.425
41.64 67.7683 0.0 39.7647 39.7647
41.65 70.845 0.0 38.992 38.992
41.66 73.7374 0.0 38.0966 38.0966
41.67 76.4641 0.0 37.0779 37.0779
41.68 79.0523 0.0 35.9347 35.9347
41.69 81.5353 0.0 34.6667 34.6667
41.7 83.9491 0.0 33.2749 33.2749
41.71 86.3287 0.0 31.7593 31.7593
41.72 88.7044 0.0 30.1256 30.1256
41.73 91.0987 0.0 28.3793 28.3793
41.74 93.5234 0.0 26.5326 26.5326
41.75 95.9776 0.0 24.6064 24.6064
41.76 98.4465 0.0 22.6265 22.6265
41.77 100.901 0.0 20.6309 20.6309
41.78 103.3 0.0 18.6682 18.6682
41.79 105.59 0.0 16.7885 16.7885
41.8 107.709 0.0 15.0508 15.0508
41.81 109.593 0.0 13.5144 13.5144
41.82 111.173 0.0 12.2341 12.2341
41.83 112.386 0.0 11.2559 11.2559
41.84 113.175 0.0 10.6129 10.6129
41.85 113.493 0.0 10.3156 10.3156
41.86 113.308 0.0 10.3589 10.3589
41.87 112.602 0.0 10.7104 10.7104
41.88 111.373 0.0 11.3138 11.3138
41.89 109.639 0.0 12.0998 12.0998
41.9 107.432 0.0 12.9758 12.9758
41.91 104.8 0.0 13.8443 13.8443
41.92 101.801 0.0 14.6061 14.6061
41.93 98.5045 0.0 15.1645 15.1645
41.94 94.9842 0.0 15.4468 15.4468
41.95 91.3155 0.0 15.3925 15.3925
41.96 87.5712 0.0 14.9718 14.9718
41.97 83.8179 0.0 14.1801 14.1801
41.98 80.112 0.0 13.053 13.053
41.99 76.4972 0.0 11.6408 11.6408
42 73.0018 0.0 10.0272 10.0272
42.01 69.6372 0.0 8.2998 8.2998
42.02 66.3974 0.0 6.56065 6.56065
42.03 63.2591 0.0 4.90791 4.90791
42.04 60.1835 0.0 3.4225 3.4225
42.05 57.1183 0.0 2.17266 2.17266
42.06 54.0013 0.0 1.19466 1.19466
42.07 50.7644 0.0 0.501639 0.501639
42.08 47.3382 0.0 0.0758384 0.0758384
42.09 43.6576 0.0 -0.127563 -0.127563
42.1 39.6667 0.0 -0.170748 -0.170748
42.11 35.3244 0.0 -0.132357 -0.132357
42.12 30.6081 0.0 -0.0910524 -0.0910524
42.13 25.5182 0.0 -0.125208 -0.125208
42.14 20.0804 0.0 -0.29042 -0.29042
42.15 14.3466 0.0 -0.63255 -0.63255
42.16 8.39413 0.0 -1.16013 -1.16013
42.17 2.32399 0.0 -1.85999 -1.85999
42.18 -3.74384 0.0 -2.69316 -2.69316
42.19 -9.67586 0.0 -3.59014 -3.59014
42.2 -15.3322 0.0 -4.47381 -4.47381
42.21 -20.5747 0.0 -5.25032 -5.25032
42.22 -25.2755 0.0 -5.83647 -5.83647
42.23 -29.3259 0.0 -6.15009 -6.15009
42.24 -32.644 0.0 -6.14399 -6.14399
42.25 -35.182 0.0 -5.78398 -5.78398
42.26 -36.9313 0.0 -5.07271 -5.07271
42.27 -37.9256 0.0 -4.04442 -4.04442
42.28 -38.2418 0.0 -2.76324 -2.76324
42.29 -37.998 0.0 -1.31999 -1.31999
42.3 -37.3494 0.0 0.176446 0.176446
42.31 -36.4813 0.0 1.61734 1.61734
42.32 -35.6003 0.0 2.8863 2.8863
42.33 -34.9239 0.0 3.88487 3.88487
42.34 -34.6692 0.0 4.53425 4.53425
42.35 -35.0416 0.0 4.78658 4.78658
42.36 -36.2228 0.0 4.61982 4.61982
42.37 -38.3615 0.0 4.05552 4.05552
42.38 -41.5644 0.0 3.13743 3.13743
42.39 -45.8902 0.0 1.94521 1.94521
42.4 -51.3457 0.0 0.572728 0.572728
42.41 -57.8851 0.0 -0.866946 -0.866946
42.42 -65.4112 0.0 -2.25975 -2.25975
42.43 -73.7807 0.0 -3.50427 -3.50427
42.44 -82.81 0.0 -4.49601 -4.49601
42.45 -92.2842 0.0 -5.16683 -5.16683
42.46 -101.967 0.0 -5.45797 -5.45797
42.47 -111.612 0.0 -5.34632 -5.34632
42.48 -120.972 0.0 -4.82247 -4.82247
42.49 -129.811 0.0 -3.91011 -3.91011
42.5 -137.915 0.0 -2.6404 -2.6404
42.51 -145.096 0.0 -1.06361 -1.06361
42.52 -151.205 0.0 0.755496 0.755496
42.53 -156.131 0.0 2.76635 2.76635
42.54 -159.806 0.0 4.90427 4.90427
42.55 -162.206 0.0 7.114 7.114
42.56 -163.348 0.0 9.34735 9.34735
42.57 -163.29 0.0 11.5549 11.5549
42.58 -162.121 0.0 13.7004 13.7004
42.59 -159.961 0.0 15.7445 15.7445
42.6 -156.95 0.0 17.6526 17.6526
42.61 -153.239 0.0 19.3916 19.3916
42.62 -148.987 0.0 20.9266 20.9266
42.63 -144.349 0.0 22.2252 22.2252
42.64 -139.472 0.0 23.2531 23.2531
42.65 -134.484 0.0 23.9911 23.9911
42.66 -129.492 0.0 24.4148 24.4148
42.67 -124.574 0.0 24.5273 24.5273
42.68 -119.781 0.0 24.3398 24.3398
42.69 -115.128 0.0 23.8814 23.8814
42.7 -110.602 0.0 23.2091 23.2091
42.71 -106.157 0.0 22.3887 22.3887
42.72 -101.719 0.0 21.518 21.518
42.73 -97.1931 0.0 20.6971 20.6971
42.74 -92.4656 0.0 20.0406 20.0406
42.75 -87.4124 0.0 19.6524 19.6524
42.76 -81.9057 0.0 19.6367 19.6367
42.77 -75.8218 0.0 20.0808 20.0808
42.78 -69.0484 0.0 21.0304 21.0304
42.79 -61.4921 0.0 22.5131 22.5131
42.8 -53.0842 0.0 24.5082 24.5082
42.81 -43.7863 0.0 26.9703 26.9703
42.82 -33.5942 0.0 29.8002 29.8002
42.83 -22.5404 0.0 32.8854 32.8854
42.84 -10.6946 0.0 36.0696 36.0696
42.85 1.8365 0.0 39.2015 39.2015
42.86 14.9119 0.0 42.1251 42.1251
42.87 28.3597 0.0 44.6753 44.6753
42.88 41.9825 0.0 46.7365 46.7365
42.89 55.5626 0.0 48.1894 48.1894
42.9 68.8692 0.0 48.9848 48.9848
42.91 81.6649 0.0 49.0781 49.0781
42.92 93.7129 0.0 48.4941 48.4941
42.93 104.784 0.0 47.2856 47.2856
42.94 114.664 0.0 45.5256 45.5256
42.95 123.158 0.0 43.3245 43.3245
42.96 130.098 0.0 40.7979 40.7979
42.97 135.345 0.0 38.0713 38.0713
42.98 138.794 0.0 35.2566 35.2566
42.99 140.38 0.0 32.4601 32.4601
43 140.073 0.0 29.763 29.763
43.01 137.885 0.0 27.2236 27.2236
43.02 133.869 0.0 24.8734 24.8734
43.03 128.113 0.0 22.7263 22.7263
43.04 120.745 0.0 20.7665 20.7665
43.05 111.925 0.0 18.9794 18.9794
43.06 101.843 0.0 17.3244 17.3244
43.07 90.713 0.0 15.776 15.776
43.08 78.7685 0.0 14.2945 14.2945
43.09 66.2537 0.0 12.8703 12.8703
43.1 53.418 0.0 11.487 11.487
43.11 40.5083 0.0 10.1357 10.1357
43.12 27.7608 0.0 8.8382 8.8382
43.13 15.3947 0.0 7.59935 7.59935
43.14 3.60481 0.0 6.44719 6.44719
43.15 -7.44346 0.0 5.38746 5.38746
43.16 -17.619 0.0 4.43703 4.43703
43.17 -26.8279 0.0 3.59388 3.59388
43.18 -35.0144 0.0 2.83938 2.83938
43.19 -42.1608 0.0 2.15481 2.15481
43.2 -48.2851 0.0 1.49912 1.49912
43.21 -53.4371 0.0 0.82909 0.82909
43.22 -57.693 0.0 0.0929776 0.0929776
43.23 -61.1491 0.0 -0.751911 -0.751911
43.24 -63.9146 0.0 -1.74944 -1.74944
43.25 -66.1038 0.0 -2.92818 -2.92818
43.26 -67.8291 0.0 -4.2989 -4.2989
43.27 -69.1936 0.0 -5.85739 -5.85739
43.28 -70.2855 0.0 -7.57754 -7.57754
43.29 -71.1731 0.0 -9.42195 -9.42195
43.3 -71.9018 0.0 -11.3272 -11.3272
43.31 -72.4927 0.0 -13.2363 -13.2363
43.32 -72.9423 0.0 -15.0777 -15.0777
43.33 -73.2247 0.0 -16.7933 -16.7933
43.34 -73.2945 0.0 -18.3265 -18.3265
43.35 -73.0916 0.0 -19.6464 -19.6464
43.36 -72.5463 0.0 -20.7307 -20.7307
43.37 -71.5851 0.0 -21.5829 -21.5829
43.38 -70.137 0.0 -22.224 -22.224
43.39 -68.1389 0.0 -22.6921 -22.6921
43.4 -65.5415 0.0 -23.0335 -23.0335
43.41 -62.3134 0.0 -23.3036 -23.3036
43.42 -58.4449 0.0 -23.5571 -23.5571
43.43 -53.95 0.0 -23.835 -23.835
43.44 -48.8677 0.0 -24.1753 -24.1753
43.45 -43.2616 0.0 -24.5894 -24.5894
43.46 -37.2187 0.0 -25.0823 -25.0823
43.47 -30.8467 0.0 -25.6273 -25.6273
43.48 -24.2704 0.0 -26.1986 -26.1986
43.49 -17.6275 0.0 -26.7465 -26.7465
43.5 -11.0636 0.0 -27.2294 -27.2294
43.51 -4.7274 0.0 -27.5996 -27.5996
43.52 1.23528 0.0 -27.8213 -27.8213
43.53 6.68616 0.0 -27.8822 -27.8822
43.54 11.4995 0.0 -27.7765 -27.7765
43.55 15.5667 0.0 -27.5297 -27.5297
43.56 18.7993 0.0 -27.1833 -27.1833
43.57 21.1326 0.0 -26.8026 -26.8026
43.58 22.5269 0.0 -26.4589 -26.4589
43.59 22.9687 0.0 -26.2327 -26.2327
43.6 22.4705 0.0 -26.2035 -26.2035
43.61 21.0695 0.0 -26.4375 -26.4375
43.62 18.8263 0.0 -26.9873 -26.9873
43.63 15.8214 0.0 -27.8744 -27.8744
43.64 12.1522 0.0 -29.0992 -29.0992
43.65 7.92961 0.0 -30.6296 -30.6296
43.66 3.2735 0.0 -32.4045 -32.4045
43.67 -1.6908 0.0 -34.3382 -34.3382
43.68 -6.83637 0.0 -36.3366 -36.3366
43.69 -12.0381 0.0 -38.2819 -38.2819
43.7 -17.1753 0.0 -40.0677 -40.0677
43.71 -22.1345 0.0 -41.5885 -41.5885
43.72 -26.8102 0.0 -42.7678 -42.7678
43.73 -31.1066 0.0 -43.5354 -43.5354
43.74 -34.9377 0.0 -43.8653 -43.8653
43.75 -38.2274 0.0 -43.7586 -43.7586
43.76 -40.9092 0.0 -43.2388 -43.2388
43.77 -42.9258 0.0 -42.3672 -42.3672
43.78 -44.2287 0.0 -41.2193 -41.2193
43.79 -44.7786 0.0 -39.8834 -39.8834
43.8 -44.5447 0.0 -38.4623 -38.4623
43.81 -43.5064 0.0 -37.0486 -37.0486
43.82 -41.6532 0.0 -35.7378 -35.7378
43.83 -38.9868 0.0 -34.5962 -34.5962
43.84 -35.5224 0.0 -33.6866 -33.6866
43.85 -31.29 0.0 -33.044 -33.044
43.86 -26.3365 0.0 -32.6845 -32.6845
43.87 -20.7262 0.0 -32.6078 -32.6078
43.88 -14.5415 0.0 -32.7935 -32.7935
43.89 -7.88302 0.0 -33.222 -33.222
43.9 -0.868266 0.0 -33.8477 -33.8477
43.91 6.37034 0.0 -34.6443 -34.6443
43.92 13.6884 0.0 -35.5704 -35.5704
43.93 20.9333 0.0 -36.5933 -36.5933
43.94 27.9489 0.0 -37.6889 -37.6889
43.95 34.5805 0.0 -38.8375 -38.8375
43.96 40.6804 0.0 -40.0214 -40.0214
43.97 46.113 0.0 -41.226 -41.226
43.98 50.7599 0.0 -42.4419 -42.4419
43.99 54.5247 0.0 -43.6507 -43.6507
44 57.3362 0.0 -44.8402 -44.8402
44.01 59.1513 0.0 -45.9863 -45.9863
44.02 59.9565 0.0 -47.0655 -47.0655
44.03 59.7684 0.0 -48.0524 -48.0524
44.04 58.6329 0.0 -48.9179 -48.9179
44.05 56.6235 0.0 -49.6335 -49.6335
44.06 53.8386 0.0 -50.1776 -50.1776
44.07 50.3983 0.0 -50.5323 -50.5323
44.08 46.4403 0.0 -50.6943 -50.6943
44.09 42.1162 0.0 -50.6612 -50.6612
44.1 37.5869 0.0 -50.4459 -50.4459
44.11 33.0186 0.0 -50.0796 -50.0796
44.12 28.5787 0.0 -49.5847 -49.5847
44.13 24.4321 0.0 -49.0001 -49.0001
44.14 20.7378 0.0 -48.3658 -48.3658
44.15 17.6455 0.0 -47.7155 -47.7155
44.16 15.2929 0.0 -47.0779 -47.0779
44.17 13.8027 0.0 -46.4827 -46.4827
44.18 13.2805 0.0 -45.9355 -45.9355
44.19 13.812 0.0 -45.447 -45.447
44.2 15.4607 0.0 -45.0107 -45.0107
44.21 18.2663 0.0 -44.6163 -44.6163
44.22 22.2422 0.0 -44.2492 -44.2492
44.23 27.3738 0.0 -43.8968 -43.8968
44.24 33.618 0.0 -43.546 -43.546
44.25 40.9014 0.0 -43.1994 -43.1994
44.26 49.1208 0.0 -42.8618 -42.8618
44.27 58.144 0.0 -42.544 -42.544
44.28 67.8106 0.0 -42.2816 -42.2816
44.29 77.9351 0.0 -42.1031 -42.1031
44.3 88.3101 0.0 -42.0561 -42.0561
44.31 98.7108 0.0 -42.1738 -42.1738
44.32 108.9 0.0 -42.4984 -42.4984
44.33 118.636 0.0 -43.0531 -43.0531
44.34 127.676 0.0 -43.8542 -43.8542
44.35 135.787 0.0 -44.902 -44.902
44.36 142.75 0.0 -46.1741 -46.1741
44.37 148.37 0.0 -47.638 -47.638
44.38 152.481 0.0 -49.2396 -49.2396
44.39 154.952 0.0 -50.9185 -50.9185
44.4 155.693 0.0 -52.607 -52.607
44.41 154.66 0.0 -54.2351 -54.2351
44.42 151.855 0.0 -55.7414 -55.7414
44.43 147.329 0.0 -57.0794 -57.0794
44.44 141.181 0.0 -58.2076 -58.2076
44.45 133.552 0.0 -59.1145 -59.1145
44.46 124.63 0.0 -59.796 -59.796
44.47 114.634 0.0 -60.2791 -60.2791
44.48 103.814 0.0 -60.5835 -60.5835
44.49 92.4421 0.0 -60.7621 -60.7621
44.5 80.8002 0.0 -60.8412 -60.8412
44.51 69.1756 0.0 -60.8676 -60.8676
44.52 57.8488 0.0 -60.8708 -60.8708
44.53 47.0856 0.0 -60.8566 -60.8566
44.54 37.1288 0.0 -60.8358 -60.8358
44.55 28.1906 0.0 -60.7756 -60.7756
44.56 20.4468 0.0 -60.6528 -60.6528
44.57 14.0325 0.0 -60.4195 -60.4195
44.58 9.03935 0.0 -60.0334 -60.0334
44.59 5.51415 0.0 -59.4482 -59.4482
44.6 3.45998 0.0 -58.635 -58.635
44.61 2.83825 0.0 -57.5803 -57.5803
44.62 3.57243 0.0 -56.2924 -56.2924
44.63 5.55281 0.0 -54.8078 -54.8078
44.64 8.64213 0.0 -53.1881 -53.1881
44.65 12.6816 0.0 -51.5186 -51.5186
44.66 17.4972 0.0 -49.9052 -49.9052
44.67 22.9053 0.0 -48.4583 -48.4583
44.68 28.7186 0.0 -47.2896 -47.2896
44.69 34.7506 0.0 -46.5036 -46.5036
44.7 40.8193 0.0 -46.1793 -46.1793
44.71 46.7509 0.0 -46.3759 -46.3759
44.72 52.3811 0.0 -47.1001 -47.1001
44.73 57.557 0.0 -48.34 -48.34
44.74 62.1378 0.0 -50.0278 -50.0278
44.75 65.9946 0.0 -52.0746 -52.0746
44.76 69.0112 0.0 -54.3592 -54.3592
44.77 71.0836 0.0 -56.7416 -56.7416
44.78 72.1206 0.0 -59.0846 -59.0846
44.79 72.0439 0.0 -61.2499 -61.2499
44.8 70.7896 0.0 -63.1266 -63.1266
44.81 68.3086 0.0 -64.6226 -64.6226
44.82 64.5689 0.0 -65.6949 -65.6949
44.83 59.5565 0.0 -66.3285 -66.3285
44.84 53.2774 0.0 -66.5454 -66.5454
44.85 45.7589 0.0 -66.4099 -66.4099
44.86 37.0503 0.0 -66.0113 -66.0113
44.87 27.2235 0.0 -65.4445 -65.4445
44.88 16.3722 0.0 -64.8222 -64.8222
44.89 4.61121 0.0 -64.2342 -64.2342
44.9 -7.92616 0.0 -63.7698 -63.7698
44.91 -21.0904 0.0 -63.4686 -63.4686
44.92 -34.7196 0.0 -63.3564 -63.3564
44.93 -48.6427 0.0 -63.4213 -63.4213
44.94 -62.6842 0.0 -63.6038 -63.6038
44.95 -76.6674 0.0 -63.8426 -63.8426
44.96 -90.4187 0.0 -64.0303 -64.0303
44.97 -103.77 0.0 -64.0797 -64.0797
44.98 -116.563 0.0 -63.8806 -63.8806
44.99 -128.65 0.0 -63.3654 -63.3654
45 -139.893 0.0 -62.4634 -62.4634
45.01 -150.169 0.0 -61.1543 -61.1543
45.02 -159.367 0.0 -59.4499 -59.4499
45.03 -167.389 0.0 -57.3865 -57.3865
45.04 -174.15 0.0 -55.0408 -55.0408
45.05 -179.576 0.0 -52.5042 -52.5042
45.06 -183.605 0.0 -49.8878 -49.8878
45.07 -186.19 0.0 -47.3028 -47.3028
45.08 -187.297 0.0 -44.8504 -44.8504
45.09 -186.905 0.0 -42.6156 -42.6156
45.1 -185.015 0.0 -40.6615 -40.6615
45.11 -181.641 0.0 -39.0068 -39.0068
45.12 -176.824 0.0 -37.6493 -37.6493
45.13 -170.623 0.0 -36.5558 -36.5558
45.14 -163.125 0.0 -35.6607 -35.6607
45.15 -154.44 0.0 -34.8906 -34.8906
45.16 -144.704 0.0 -34.1594 -34.1594
45.17 -134.073 0.0 -33.3848 -33.3848
45.18 -122.728 0.0 -32.4941 -32.4941
45.19 -110.863 0.0 -31.4436 -31.4436
45.2 -98.6876 0.0 -30.2044 -30.2044
45.21 -86.4147 0.0 -28.7903 -28.7903
45.22 -74.2591 0.0 -27.2279 -27.2279
45.23 -62.4292 0.0 -25.5788 -25.5788
45.24 -51.1205 0.0 -23.9075 -23.9075
45.25 -40.5099 0.0 -22.3031 -22.3031
45.26 -30.7502 0.0 -20.8338 -20.8338
45.27 -21.9661 0.0 -19.5589 -19.5589
45.28 -14.2507 0.0 -18.5323 -18.5323
45.29 -7.6641 0.0 -17.7609 -17.7609
45.3 -2.23282 0.0 -17.2332 -17.2332
45.31 2.04902 0.0 -16.906 -16.906
45.32 5.21748 0.0 -16.7085 -16.7085
45.33 7.33554 0.0 -16.5495 -16.5495
45.34 8.48884 0.0 -16.3278 -16.3278
45.35 8.78098 0.0 -15.941 -15.941
45.36 8.32836 0.0 -15.2944 -15.2944
45.37 7.25506 0.0 -14.3101 -14.3101
45.38 5.68782 0.0 -12.9368 -12.9368
45.39 3.75142 0.0 -11.1534 -11.1534
45.4 1.56461 0.0 -8.97261 -8.97261
45.41 -0.76332 0.0 -6.43268 -6.43268
45.42 -3.13517 0.0 -3.61183 -3.61183
45.43 -5.46777 0.0 -0.595232 -0.595232
45.44 -7.69306 0.0 2.50906 2.50906
45.45 -9.75848 0.0 5.59548 5.59548
45.46 -11.6267 0.0 8.5537 8.5537
45.47 -13.2746 0.0 11.2976 11.2976
45.48 -14.6921 0.0 13.7551 13.7551
45.49 -15.8801 0.0 15.8731 15.8731
45.5 -16.8484 0.0 17.6244 17.6244
45.51 -17.6139 0.0 19.0089 19.0089
45.52 -18.1978 0.0 20.0458 20.0458
45.53 -18.6235 0.0 20.7675 20.7675
45.54 -18.915 0.0 21.222 21.222
45.55 -19.0946 0.0 21.4606 21.4606
45.56 -19.1818 0.0 21.5338 21.5338
45.57 -19.1927 0.0 21.4877 21.4877
45.58 -19.1387 0.0 21.3697 21.3697
45.59 -19.0273 0.0 21.2103 21.2103
45.6 -18.862 0.0 21.037 21.037
45.61 -18.6431 0.0 20.8741 20.8741
45.62 -18.369 0.0 20.735 20.735
45.63 -18.0371 0.0 20.6351 20.6351
45.64 -17.645 0.0 20.595 20.595
45.65 -17.1916 0.0 20.6246 20.6246
45.66 -16.6781 0.0 20.7451 20.7451
45.67 -16.1084 0.0 20.9764 20.9764
45.68 -15.4893 0.0 21.3323 21.3323
45.69 -14.83 0.0 21.826 21.826
45.7 -14.1418 0.0 22.4628 22.4628
45.71 -13.4365 0.0 23.2425 23.2425
45.72 -12.7256 0.0 24.1436 24.1436
45.73 -12.0186 0.0 25.1406 25.1406
45.74 -11.322 0.0 26.192 26.192
45.75 -10.6378 0.0 27.2498 27.2498
45.76 -9.96311 0.0 28.2571 28.2571
45.77 -9.28994 0.0 29.1639 29.1639
45.78 -8.60538 0.0 29.9194 29.9194
45.79 -7.89276 0.0 30.4878 30.4878
45.8 -7.13317 0.0 30.8552 30.8552
45.81 -6.30749 0.0 31.0235 31.0235
45.82 -5.39878 0.0 31.0148 31.0148
45.83 -4.39477 0.0 30.8808 30.8808
45.84 -3.29026 0.0 30.6843 30.6843
45.85 -2.08919 0.0 30.5022 30.5022
45.86 -0.806157 0.0 30.4162 30.4162
45.87 0.532787 0.0 30.4982 30.4982
45.88 1.8902 0.0 30.8088 30.8088
45.89 3.21825 0.0 31.3797 31.3797
45.9 4.46064 0.0 32.2194 32.2194
45.91 5.55533 0.0 33.3017 33.3017
45.92 6.43803 0.0 34.563 34.563
45.93 7.04603 0.0 35.917 35.917
45.94 7.32237 0.0 37.2566 37.2566
45.95 7.21984 0.0 38.4592 38.4592
45.96 6.70474 0.0 39.4063 39.4063
45.97 5.75994 0.0 40.0021 40.0021
45.98 4.38723 0.0 40.1718 40.1718
45.99 2.60865 0.0 39.8863 39.8863
46 0.466764 0.0 39.1642 39.1642
46.01 -1.97608 0.0 38.0691 38.0691
46.02 -4.63954 0.0 36.7155 36.7155
46.03 -7.42798 0.0 35.262 35.262
46.04 -10.2339 0.0 33.8869 33.8869
46.05 -12.9417 0.0 32.7957 32.7957
46.06 -15.4323 0.0 32.1713 32.1713
46.07 -17.5872 0.0 32.1892 32.1892
46.08 -19.293 0.0 32.974 32.974
46.09 -20.4452 0.0 34.5912 34.5912
46.1 -20.9519 0.0 37.0499 37.0499
46.11 -20.7369 0.0 40.2869 40.2869
46.12 -19.7423 0.0 44.1673 44.1673
46.13 -17.9301 0.0 48.5031 48.5031
46.14 -15.2842 0.0 53.0622 53.0622
46.15 -11.8103 0.0 57.5863 57.5863
46.16 -7.53673 0.0 61.8057 61.8057
46.17 -2.51372 0.0 65.4847 65.4847
46.18 3.18711 0.0 68.4229 68.4229
46.19 9.47423 0.0 70.4648 70.4648
46.2 16.2378 0.0 71.5422 71.5422
46.21 23.352 0.0 71.646 71.646
46.22 30.6772 0.0 70.8588 70.8588
46.23 38.0634 0.0 69.3146 69.3146
46.24 45.3532 0.0 67.2098 67.2098
46.25 52.3855 0.0 64.7695 64.7695
46.26 58.9993 0.0 62.2337 62.2337
46.27 65.0379 0.0 59.8351 59.8351
46.28 70.353 0.0 57.773 57.773
46.29 74.8085 0.0 56.2005 56.2005
46.3 78.2845 0.0 55.2055 55.2055
46.31 80.6806 0.0 54.8174 54.8174
46.32 81.9195 0.0 54.9945 54.9945
46.33 81.9484 0.0 55.6416 55.6416
46.34 80.7416 0.0 56.6124 56.6124
46.35 78.301 0.0 57.736 57.736
46.36 74.6563 0.0 58.8307 58.8307
46.37 69.8643 0.0 59.7257 59.7257
46.38 64.0069 0.0 60.2831 60.2831
46.39 57.1896 0.0 60.4064 60.4064
46.4 49.5377 0.0 60.0523 60.0523
46.41 41.1929 0.0 59.2381 59.2381
46.42 32.3097 0.0 58.0353 58.0353
46.43 23.0503 0.0 56.5547 56.5547
46.44 13.5806 0.0 54.9614 54.9614
46.45 4.06549 0.0 53.4115 53.4115
46.46 -5.33565 0.0 52.0857 52.0857
46.47 -14.4731 0.0 51.1291 51.1291
46.48 -23.2104 0.0 50.6634 50.6634
46.49 -31.4278 0.0 50.7558 50.7558
46.5 -39.0247 0.0 51.4287 51.4287
46.51 -45.9217 0.0 52.6447 52.6447
46.52 -52.0611 0.0 54.3171 54.3171
46.53 -57.4079 0.0 56.3169 56.3169
46.54 -61.9484 0.0 58.4874 58.4874
46.55 -65.689 0.0 60.66 60.66
46.56 -68.6539 0.0 62.6599 62.6599
46.57 -70.882 0.0 64.338 64.338
46.58 -72.4234 0.0 65.5754 65.5754
46.59 -73.3353 0.0 66.2933 66.2933
46.6 -73.6783 0.0 66.4523 66.4523
46.61 -73.5118 0.0 66.0678 66.0678
46.62 -72.8908 0.0 65.1938 65.1938
46.63 -71.8618 0.0 63.9168 63.9168
46.64 -70.4609 0.0 62.3519 62.3519
46.65 -68.7119 0.0 60.6219 60.6219
46.66 -66.6247 0.0 58.8547 58.8547
46.67 -64.1962 0.0 57.1602 57.1602
46.68 -61.411 0.0 55.636 55.636
46.69 -58.2429 0.0 54.3439 54.3439
46.7 -54.6583 0.0 53.3303 53.3303
46.71 -50.6183 0.0 52.6063 52.6063
46.72 -46.0829 0.0 52.1629 52.1629
46.73 -41.014 0.0 51.973 51.973
46.74 -35.3788 0.0 52.0078 52.0078
46.75 -29.1524 0.0 52.2214 52.2214
46.76 -22.3207 0.0 52.5917 52.5917
46.77 -14.8815 0.0 53.0975 53.0975
46.78 -6.84572 0.0 53.7257 53.7257
46.79 1.76211 0.0 54.4859 54.4859
46.8 10.9045 0.0 55.3875 55.3875
46.81 20.5315 0.0 56.4595 56.4595
46.82 30.582 0.0 57.713 57.713
46.83 40.9849 0.0 59.1671 59.1671
46.84 51.6605 0.0 60.8175 60.8175
46.85 62.5217 0.0 62.6483 62.6483
46.86 73.4748 0.0 64.6292 64.6292
46.87 84.4206 0.0 66.6934 66.6934
46.88 95.2548 0.0 68.7802 68.7802
46.89 105.868 0.0 70.7978 70.7978
46.9 116.148 0.0 72.6622 72.6622
46.91 125.976 0.0 74.2775 74.2775
46.92 135.235 0.0 75.5825 75.5825
46.93 143.801 0.0 76.5195 76.5195
46.94 151.553 0.0 77.0517 77.0517
46.95 158.374 0.0 77.1818 77.1818
46.96 164.15 0.0 76.9292 76.9292
46.97 168.776 0.0 76.3421 76.3421
46.98 172.161 0.0 75.4822 75.4822
46.99 174.23 0.0 74.4275 74.4275
47 174.928 0.0 73.2533 73.2533
47.01 174.225 0.0 72.0311 72.0311
47.02 172.118 0.0 70.8093 70.8093
47.03 168.632 0.0 69.6214 69.6214
47.04 163.822 0.0 68.4709 68.4709
47.05 157.774 0.0 67.3458 67.3458
47.06 150.601 0.0 66.1959 66.1959
47.07 142.441 0.0 64.9747 64.9747
47.08 133.455 0.0 63.6111 63.6111
47.09 123.819 0.0 62.0485 62.0485
47.1 113.72 0.0 60.2406 60.2406
47.11 103.354 0.0 58.157 58.157
47.12 92.9126 0.0 55.8094 55.8094
47.13 82.5836 0.0 53.2264 53.2264
47.14 72.543 0.0 50.486 50.486
47.15 62.9514 0.0 47.6806 47.6806
47.16 53.9502 0.0 44.9348 44.9348
47.17 45.6586 0.0 42.3814 42.3814
47.18 38.1724 0.0 40.1376 40.1376
47.19 31.5626 0.0 38.3334 38.3334
47.2 25.8753 0.0 37.0447 37.0447
47.21 21.1328 0.0 36.3302 36.3302
47.22 17.3337 0.0 36.1843 36.1843
47.23 14.4554 0.0 36.5676 36.5676
47.24 12.4549 0.0 37.3821 37.3821
47.25 11.2716 0.0 38.4994 38.4994
47.26 10.8285 0.0 39.7475 39.7475
47.27 11.0354 0.0 40.9436 40.9436
47.28 11.7901 0.0 41.9009 41.9009
47.29 12.9821 0.0 42.4439 42.4439
47.3 14.4944 0.0 42.4266 42.4266
47.31 16.2066 0.0 41.7394 41.7394
47.32 17.9981 0.0 40.3289 40.3289
47.33 19.7512 0.0 38.1938 38.1938
47.34 21.354 0.0 35.385 35.385
47.35 22.7039 0.0 32.0081 32.0081
47.36 23.7103 0.0 28.2047 28.2047
47.37 24.2973 0.0 24.1467 24.1467
47.38 24.4054 0.0 20.0226 20.0226
47.39 23.9929 0.0 16.0171 16.0171
47.4 23.0367 0.0 12.2963 12.2963
47.41 21.5313 0.0 9.00867 9.00867
47.42 19.4881 0.0 6.24993 6.24993
47.43 16.9328 0.0 4.08521 4.08521
47.44 13.9031 0.0 2.5239 2.5239
47.45 10.4451 0.0 1.53788 1.53788
47.46 6.60991 0.0 1.06309 1.06309
47.47 2.44988 0.0 0.999117 0.999117
47.48 -1.98446 0.0 1.23446 1.23446
47.49 -6.64735 0.0 1.64535 1.64535
47.5 -11.4998 0.0 2.11485 2.11485
47.51 -16.511 0.0 2.53698 2.53698
47.52 -21.658 0.0 2.81705 2.81705
47.53 -26.9258 0.0 2.89485 2.89485
47.54 -32.3051 0.0 2.73008 2.73008
47.55 -37.7901 0.0 2.31105 2.31105
47.56 -43.3757 0.0 1.63575 1.63575
47.57 -49.0548 0.0 0.731788 0.731788
47.58 -54.8143 0.0 -0.373714 -0.373714
47.59 -60.6331 0.0 -1.63591 -1.63591
47.6 -66.4795 0.0 -3.01747 -3.01747
47.61 -72.31 0.0 -4.48402 -4.48402
47.62 -78.0683 0.0 -5.99968 -5.99968
47.63 -83.6864 0.0 -7.54059 -7.54059
47.64 -89.0856 0.0 -9.07837 -9.07837
47.65 -94.1793 0.0 -10.5997 -10.5997
47.66 -98.8761 0.0 -12.0799 -12.0799
47.67 -103.084 0.0 -13.5021 -13.5021
47.68 -106.714 0.0 -14.8407 -14.8407
47.69 -109.687 0.0 -16.067 -16.067
47.7 -111.935 0.0 -17.1573 -17.1573
47.71 -113.407 0.0 -18.0743 -18.0743
47.72 -114.073 0.0 -18.7939 -18.7939
47.73 -113.927 0.0 -19.2939 -19.2939
47.74 -112.987 0.0 -19.5588 -19.5588
47.75 -111.298 0.0 -19.5982 -19.5982
47.76 -108.929 0.0 -19.431 -19.431
47.77 -105.975 0.0 -19.0919 -19.0919
47.78 -102.552 0.0 -18.636 -18.636
47.79 -98.7936 0.0 -18.1334 -18.1334
47.8 -94.8467 0.0 -17.6663 -17.6663
47.81 -90.8665 0.0 -17.3105 -17.3105
47.82 -87.0097 0.0 -17.1553 -17.1553
47.83 -83.4289 0.0 -17.2581 -17.2581
47.84 -80.2659 0.0 -17.6751 -17.6751
47.85 -77.6456 0.0 -18.4254 -18.4254
47.86 -75.6704 0.0 -19.5066 -19.5066
47.87 -74.4152 0.0 -20.8788 -20.8788
47.88 -73.9238 0.0 -22.4822 -22.4822
47.89 -74.206 0.0 -24.222 -24.222
47.9 -75.2363 0.0 -25.9947 -25.9947
47.91 -76.9551 0.0 -27.6779 -27.6779
47.92 -79.2695 0.0 -29.1565 -29.1565
47.93 -82.0579 0.0 -30.3261 -30.3261
47.94 -85.174 0.0 -31.092 -31.092
47.95 -88.4534 0.0 -31.4036 -31.4036
47.96 -91.7204 0.0 -31.2296 -31.2296
47.97 -94.7954 0.0 -30.5776 -30.5776
47.98 -97.5026 0.0 -29.4944 -29.4944
47.99 -99.6772 0.0 -28.0528 -28.0528
48 -101.172 0.0 -26.3565 -26.3565
48.01 -101.865 0.0 -24.5148 -24.5148
48.02 -101.66 0.0 -22.649 -22.649
48.03 -100.493 0.0 -20.8782 -20.8782
48.04 -98.3316 0.0 -19.3004 -19.3004
48.05 -95.1765 0.0 -17.9955 -17.9955
48.06 -91.0581 0.0 -17.0149 -17.0149
48.07 -86.0342 0.0 -16.3788 -16.3788
48.08 -80.1858 0.0 -16.0762 -16.0762
48.09 -73.6121 0.0 -16.0729 -16.0729
48.1 -66.4256 0.0 -16.3064 -16.3064
48.11 -58.7463 0.0 -16.7027 -16.7027
48.12 -50.6971 0.0 -17.1859 -17.1859
48.13 -42.399 0.0 -17.673 -17.673
48.14 -33.9673 0.0 -18.1047 -18.1047
48.15 -25.5088 0.0 -18.4202 -18.4202
48.16 -17.1196 0.0 -18.6004 -18.6004
48.17 -8.88411 0.0 -18.6339 -18.6339
48.18 -0.874554 0.0 -18.5284 -18.5284
48.19 6.84858 0.0 -18.3276 -18.3276
48.2 14.2357 0.0 -18.0697 -18.0697
48.21 21.2469 0.0 -17.8139 -17.8139
48.22 27.8505 0.0 -17.6075 -17.6075
48.23 34.0216 0.0 -17.5056 -17.5056
48.24 39.7407 0.0 -17.5367 -17.5367
48.25 44.9922 0.0 -17.7292 -17.7292
48.26 49.7636 0.0 -18.0796 -18.0796
48.27 54.044 0.0 -18.575 -18.575
48.28 57.8236 0.0 -19.1816 -19.1816
48.29 61.0931 0.0 -19.8591 -19.8591
48.3 63.8429 0.0 -20.5529 -20.5529
48.31 66.0628 0.0 -21.2128 -21.2128
48.32 67.7413 0.0 -21.7893 -21.7893
48.33 68.8661 0.0 -22.2401 -22.2401
48.34 69.4233 0.0 -22.5383 -22.5383
48.35 69.3982 0.0 -22.6772 -22.6772
48.36 68.7756 0.0 -22.6606 -22.6606
48.37 67.5408 0.0 -22.5038 -22.5038
48.38 65.6805 0.0 -22.2465 -22.2465
48.39 63.1848 0.0 -21.9288 -21.9288
48.4 60.0491 0.0 -21.6011 -21.6011
48.41 56.2755 0.0 -21.3075 -21.3075
48.42 51.8758 0.0 -21.0898 -21.0898
48.43 46.8731 0.0 -20.9821 -20.9821
48.44 41.3037 0.0 -21.0077 -21.0077
48.45 35.2182 0.0 -21.1742 -21.1742
48.46 28.6826 0.0 -21.4736 -21.4736
48.47 21.7779 0.0 -21.8949 -21.8949
48.48 14.5992 0.0 -22.4052 -22.4052
48.49 7.25419 0.0 -22.9742 -22.9742
48.5 -0.139787 0.0 -23.5622 -23.5622
48.51 -7.4587 0.0 -24.1353 -24.1353
48.52 -14.5757 0.0 -24.6613 -24.6613
48.53 -21.3653 0.0 -25.1067 -25.1067
48.54 -27.7071 0.0 -25.4599 -25.4599
48.55 -33.49 0.0 -25.7 -25.7
48.56 -38.6152 0.0 -25.8288 -25.8288
48.57 -42.9992 0.0 -25.8408 -25.8408
48.58 -46.5755 0.0 -25.7525 -25.7525
48.59 -49.2954 0.0 -25.5646 -25.5646
48.6 -51.1286 0.0 -25.2934 -25.2934
48.61 -52.0622 0.0 -24.9458 -24.9458
48.62 -52.0995 0.0 -24.5305 -24.5305
48.63 -51.2583 0.0 -24.0597 -24.0597
48.64 -49.5691 0.0 -23.5329 -23.5329
48.65 -47.073 0.0 -22.954 -22.954
48.66 -43.8199 0.0 -22.3371 -22.3371
48.67 -39.8673 0.0 -21.6847 -21.6847
48.68 -35.279 0.0 -21.007 -21.007
48.69 -30.1249 0.0 -20.3251 -20.3251
48.7 -24.4803 0.0 -19.6607 -19.6607
48.71 -18.4265 0.0 -19.0405 -19.0405
48.72 -12.0505 0.0 -18.4965 -18.4965
48.73 -5.44533 0.0 -18.0687 -18.0687
48.74 1.2902 0.0 -17.7842 -17.7842
48.75 8.05211 0.0 -17.6841 -17.6841
48.76 14.7325 0.0 -17.7925 -17.7925
48.77 21.2214 0.0 -18.1224 -18.1224
48.78 27.4091 0.0 -18.6901 -18.6901
48.79 33.1895 0.0 -19.4815 -19.4815
48.8 38.4628 0.0 -20.4828 -20.4828
48.81 43.14 0.0 -21.661 -21.661
48.82 47.1458 0.0 -22.9678 -22.9678
48.83 50.4218 0.0 -24.3508 -24.3508
48.84 52.9294 0.0 -25.7494 -25.7494
48.85 54.6514 0.0 -27.0974 -27.0974
48.86 55.5929 0.0 -28.3349 -28.3349
48.87 55.7811 0.0 -29.4031 -29.4031
48.88 55.2639 0.0 -30.2559 -30.2559
48.89 54.1078 0.0 -30.8598 -30.8598
48.9 52.3946 0.0 -31.1946 -31.1946
48.91 50.2176 0.0 -31.2576 -31.2576
48.92 47.6772 0.0 -31.0612 -31.0612
48.93 44.8766 0.0 -30.6336 -30.6336
48.94 41.9175 0.0 -30.0115 -30.0115
48.95 38.8956 0.0 -29.2506 -29.2506
48.96 35.8976 0.0 -28.3976 -28.3976
48.97 32.998 0.0 -27.517 -27.517
48.98 30.257 0.0 -26.665 -26.665
48.99 27.7192 0.0 -25.8922 -25.8922
49 25.4134 0.0 -25.2404 -25.2404
49.01 23.352 0.0 -24.747 -24.747
49.02 21.5327 0.0 -24.4317 -24.4317
49.03 19.9391 0.0 -24.3041 -24.3041
49.04 18.5432 0.0 -24.3632 -24.3632
49.05 17.3069 0.0 -24.5989 -24.5989
49.06 16.1848 0.0 -24.9898 -24.9898
49.07 15.1266 0.0 -25.5086 -25.5086
49.08 14.0794 0.0 -26.1254 -26.1254
49.09 12.991 0.0 -26.807 -26.807
49.1 11.8117 0.0 -27.5237 -27.5237
49.11 10.4978 0.0 -28.2488 -28.2488
49.12 9.01294 0.0 -28.9609 -28.9609
49.13 7.33116 0.0 -29.6442 -29.6442
49.14 5.43819 0.0 -30.2852 -30.2852
49.15 3.33308 0.0 -30.8841 -30.8841
49.16 1.02901 0.0 -31.44 -31.44
49.17 -1.4464 0.0 -31.9626 -31.9626
49.18 -4.0515 0.0 -32.4565 -32.4565
49.19 -6.73181 0.0 -32.9322 -32.9322
49.2 -9.42179 0.0 -33.3982 -33.3982
49.21 -12.0475 0.0 -33.8535 -33.8535
49.22 -14.5293 0.0 -34.3007 -34.3007
49.23 -16.7861 0.0 -34.7269 -34.7269
49.24 -18.7379 0.0 -35.1191 -35.1191
49.25 -20.3106 0.0 -35.4564 -35.4564
49.26 -21.4387 0.0 -35.7113 -35.7113
49.27 -22.0682 0.0 -35.8588 -35.8588
49.28 -22.1593 0.0 -35.8607 -35.8607
49.29 -21.6876 0.0 -35.6914 -35.6914
49.3 -20.6447 0.0 -35.3263 -35.3263
49.31 -19.0379 0.0 -34.7451 -34.7451
49.32 -16.8892 0.0 -33.9458 -33.9458
49.33 -14.2332 0.0 -32.9278 -32.9278
49.34 -11.1153 0.0 -31.7107 -31.7107
49.35 -7.58827 0.0 -30.3287 -30.3287
49.36 -3.71041 0.0 -28.8156 -28.8156
49.37 0.457594 0.0 -27.2376 -27.2376
49.38 4.8547 0.0 -25.6447 -25.6447
49.39 9.42127 0.0 -24.1053 -24.1053
49.4 14.1003 0.0 -22.6803 -22.6803
49.41 18.8382 0.0 -21.4292 -21.4292
49.42 23.5848 0.0 -20.3968 -20.3968
49.43 28.2932 0.0 -19.6132 -19.6132
49.44 32.9195 0.0 -19.0985 -19.0985
49.45 37.4221 0.0 -18.8521 -18.8521
49.46 41.7612 0.0 -18.8552 -18.8552
49.47 45.899 0.0 -19.069 -19.069
49.48 49.7992 0.0 -19.4442 -19.4442
49.49 53.4279 0.0 -19.9249 -19.9249
49.5 56.7542 0.0 -20.4452 -20.4452
49.51 59.751 0.0 -20.945 -20.945
49.52 62.3963 0.0 -21.3633 -21.3633
49.53 64.6745 0.0 -21.6615 -21.6615
49.54 66.5766 0.0 -21.8026 -21.8026
49.55 68.1015 0.0 -21.7805 -21.7805
49.56 69.2553 0.0 -21.5993 -21.5993
49.57 70.0518 0.0 -21.2818 -21.2818
49.58 70.5107 0.0 -20.8717 -20.8717
49.59 70.6568 0.0 -20.4178 -20.4178
49.6 70.5181 0.0 -19.9801 -19.9801
49.61 70.1242 0.0 -19.6202 -19.6202
49.62 69.5045 0.0 -19.3885 -19.3885
49.63 68.6867 0.0 -19.3347 -19.3347
49.64 67.696 0.0 -19.486 -19.486
49.65 66.5546 0.0 -19.8576 -19.8576
49.66 65.282 0.0 -20.442 -20.442
49.67 63.8961 0.0 -21.2151 -21.2151
49.68 62.4141 0.0 -22.1401 -22.1401
49.69 60.8549 0.0 -23.1599 -23.1599
49.7 59.2407 0.0 -24.2187 -24.2187
49.71 57.5989 0.0 -25.2519 -25.2519
49.72 55.963 0.0 -26.204 -26.204
49.73 54.374 0.0 -27.029 -27.029
49.74 52.8797 0.0 -27.6967 -27.6967
49.75 51.5339 0.0 -28.1849 -28.1849
49.76 50.394 0.0 -28.505 -28.505
49.77 49.5183 0.0 -28.6793 -28.6793
49.78 48.9621 0.0 -28.7421 -28.7421
49.79 48.7739 0.0 -28.7469 -28.7469
49.8 48.9909 0.0 -28.7559 -28.7559
49.81 49.6357 0.0 -28.8277 -28.8277
49.82 50.7126 0.0 -29.0176 -29.0176
49.83 52.2056 0.0 -29.3766 -29.3766
49.84 54.0774 0.0 -29.9354 -29.9354
49.85 56.2693 0.0 -30.7153 -30.7153
49.86 58.7033 0.0 -31.7153 -31.7153
49.87 61.2845 0.0 -32.9175 -32.9175
49.88 63.9046 0.0 -34.2866 -34.2866
49.89 66.4472 0.0 -35.7872 -35.7872
49.9 68.7917 0.0 -37.3617 -37.3617
49.91 70.8187 0.0 -38.9647 -38.9647
49.92 72.4141 0.0 -40.5491 -40.5491
49.93 73.473 0.0 -42.08 -42.08
49.94 73.9028 0.0 -43.5378 -43.5378
49.95 73.6246 0.0 -44.9146 -44.9146
49.96 72.5751 0.0 -46.2251 -46.2251
49.97 70.7059 0.0 -47.4939 -47.4939
49.98 67.9834 0.0 -48.7614 -48.7614
49.99 64.3881 0.0 -50.0801 -50.0801
50 59.913 0.0 -51.502 -51.502
